Timestamp,Accel_x,Accel_y,Accel_z,Gyro_x,Gyro_y,Gyro_z
1729615630879.3484,-1.1081514358520508,-9.639936447143555,-0.254972904920578,-1.1081514358520508,-9.639936447143555,-0.254972904920578
1729615630888.1912,-0.0005323254154063761,-0.006391395349055529,0.030892327427864075,-0.0005323254154063761,-0.006391395349055529,0.030892327427864075
1729615631323.186,-1.0493115186691284,-9.198637008666992,-0.08825984597206116,-1.0493115186691284,-9.198637008666992,-0.08825984597206116
1729615631335.1836,-0.02183755859732628,0.13209524750709534,-0.09268046915531158,-0.02183755859732628,0.13209524750709534,-0.09268046915531158
1729615631468.1174,-1.6279038190841675,-9.620323181152344,-0.27458620071411133,-1.6279038190841675,-9.620323181152344,-0.27458620071411133
1729615631476.0588,0.02822895534336567,0.10439860820770264,-0.11824779957532883,0.02822895534336567,0.10439860820770264,-0.11824779957532883
1729615631569.011,-1.45138418674469,-9.502643585205078,-0.0784531980752945,-1.45138418674469,-9.502643585205078,-0.0784531980752945
1729615631577.8076,0.04634023457765579,-0.08895070105791092,0.1592612862586975,0.04634023457765579,-0.08895070105791092,0.1592612862586975
1729615631707.5042,-1.3337043523788452,-9.551676750183105,-0.13729310035705566,-1.3337043523788452,-9.551676750183105,-0.13729310035705566
1729615631707.5586,-0.023436279967427254,-0.05752430483698845,0.06817779690027237,-0.023436279967427254,-0.05752430483698845,0.06817779690027237
1729615631833.5222,-1.1473779678344727,-9.561483383178711,-0.21574629843235016,-1.1473779678344727,-9.561483383178711,-0.21574629843235016
1729615631839.658,-0.003728023264557123,-0.04634023457765579,0.004260348621755838,-0.003728023264557123,-0.04634023457765579,0.004260348621755838
1729615631938.7546,-1.186604619026184,-9.63012981414795,-0.29419949650764465,-1.186604619026184,-9.63012981414795,-0.29419949650764465
1729615631936.2844,-0.006923720706254244,0.004260348621755838,0.017043139785528183,-0.006923720706254244,0.004260348621755838,0.017043139785528183
1729615632061.7114,-1.3435109853744507,-9.581096649169922,-0.18632633984088898,-1.3435109853744507,-9.581096649169922,-0.18632633984088898
1729615632065.2192,0.013315116055309772,0.04634023457765579,-0.026631977409124374,0.013315116055309772,0.04634023457765579,-0.026631977409124374
1729615632190.7075,-1.3435109853744507,-9.679162979125977,-0.13729310035705566,-1.3435109853744507,-9.679162979125977,-0.13729310035705566
1729615632190.8013,0.0021293016616255045,0.02290220931172371,-0.007988371886312962,0.0021293016616255045,0.02290220931172371,-0.007988371886312962
1729615632280.373,-1.3631243705749512,-9.571290016174316,-0.313812792301178,-1.3631243705749512,-9.571290016174316,-0.313812792301178
1729615632281.352,0.017043139785528183,0.03994709625840187,-0.06817779690027237,0.017043139785528183,0.03994709625840187,-0.06817779690027237
1729615632367.9788,-1.3140910863876343,-9.610516548156738,-0.127486452460289,-1.3140910863876343,-9.610516548156738,-0.127486452460289
1729615632369.7986,0.018641861155629158,-0.0607217475771904,0.04846953600645065,0.018641861155629158,-0.0607217475771904,0.04846953600645065
1729615632478.7756,-1.0983448028564453,-9.581096649169922,-0.11767979711294174,-1.0983448028564453,-9.581096649169922,-0.11767979711294174
1729615632481.6304,0.021305233240127563,-0.04793721064925194,-0.02609965205192566,0.021305233240127563,-0.04793721064925194,-0.02609965205192566
1729615632618.4065,-0.6962721347808838,-10.257755279541016,-0.24516624212265015,-0.6962721347808838,-10.257755279541016,-0.24516624212265015
1729615632622.505,-0.05166523531079292,-0.05859070271253586,-0.1395530253648758,-0.05166523531079292,-0.05859070271253586,-0.1395530253648758
1729615632697.7595,-0.4412992298603058,-9.728196144104004,-0.08825984597206116,-0.4412992298603058,-9.728196144104004,-0.08825984597206116
1729615632702.5308,-0.05645965412259102,-0.03462209552526474,0.04634023457765579,-0.05645965412259102,-0.03462209552526474,0.04634023457765579
1729615632805.3748,-0.6864655017852783,-9.845876693725586,-0.40207263827323914,-0.6864655017852783,-9.845876693725586,-0.40207263827323914
1729615632807.2258,0.031958721578121185,-0.017577210441231728,0.05060058459639549,0.031958721578121185,-0.017577210441231728,0.05060058459639549
1729615632896.8674,-0.4805258512496948,-9.855683326721191,-0.05883989855647087,-0.4805258512496948,-9.855683326721191,-0.05883989855647087
1729615632900.2927,0.03036000207066536,0.11451803147792816,-0.017577210441231728,0.03036000207066536,0.11451803147792816,-0.017577210441231728
1729615633025.792,-0.3824593424797058,-9.581096649169922,0.009806649759411812,-0.3824593424797058,-9.581096649169922,0.009806649759411812
1729615633035.4956,0.07883128523826599,0.21838431060314178,0.02183755859732628,0.07883128523826599,0.21838431060314178,0.02183755859732628
1729615633134.696,-0.8041452765464783,-8.963277816772461,0.4805258512496948,-0.8041452765464783,-8.963277816772461,0.4805258512496948
1729615633135.4722,0.11292105168104172,-0.05006825923919678,0.0830916315317154,0.11292105168104172,-0.05006825923919678,0.0830916315317154
1729615633263.1755,-1.1375713348388672,-9.188830375671387,0.254972904920578,-1.1375713348388672,-9.188830375671387,0.254972904920578
1729615633265.2192,-0.03994709625840187,0.25886547565460205,0.06924419105052948,-0.03994709625840187,0.25886547565460205,0.06924419105052948
1729615633361.842,-0.5687856674194336,-9.934136390686035,-0.10787314921617508,-0.5687856674194336,-9.934136390686035,-0.10787314921617508
1729615633364.8538,0.07297221571207047,0.41333410143852234,0.15127117931842804,0.07297221571207047,0.41333410143852234,0.15127117931842804
1729615633460.3625,-1.6573238372802734,-10.306788444519043,-0.42168593406677246,-1.6573238372802734,-10.306788444519043,-0.42168593406677246
1729615633464.3413,0.4405001401901245,-0.04261046648025513,0.12836721539497375,0.4405001401901245,-0.04261046648025513,0.12836721539497375
1729615633598.0461,-0.990471601486206,-9.277091026306152,0.6472389101982117,-0.990471601486206,-9.277091026306152,0.6472389101982117
1729615633598.414,-0.16458803415298462,-0.12889954447746277,-0.2237110584974289,-0.16458803415298462,-0.12889954447746277,-0.2237110584974289
1729615633696.2236,-1.1964112520217896,-10.257755279541016,0.32361945509910583,-1.1964112520217896,-10.257755279541016,0.32361945509910583
1729615633697.5532,0.034088023006916046,0.07989593595266342,-0.10173524171113968,0.034088023006916046,0.07989593595266342,-0.10173524171113968
1729615633890.9739,-1.1473779678344727,-9.796843528747559,0.21574629843235016,-1.1473779678344727,-9.796843528747559,0.21574629843235016
1729615633894.1743,-0.014913838356733322,0.2338322252035141,0.07297221571207047,-0.014913838356733322,0.2338322252035141,0.07297221571207047
1729615634025.7397,-1.2454445362091064,-10.198915481567383,0.4903324842453003,-1.2454445362091064,-10.198915481567383,0.4903324842453003
1729615634025.3938,0.06711314618587494,-0.05166523531079292,0.16671733558177948,0.06711314618587494,-0.05166523531079292,0.16671733558177948
1729615634150.3447,-1.0002782344818115,-9.973362922668457,0.17651969194412231,-1.0002782344818115,-9.973362922668457,0.17651969194412231
1729615634156.0483,-0.1257038414478302,-0.013315116055309772,-0.625328779220581,-0.1257038414478302,-0.013315116055309772,-0.625328779220581
1729615634283.9565,-0.019613299518823624,-9.894909858703613,0.5001391172409058,-0.019613299518823624,-9.894909858703613,0.5001391172409058
1729615634286.1387,-0.08575500547885895,-0.7345218062400818,-0.46074071526527405,-0.08575500547885895,-0.7345218062400818,-0.46074071526527405
1729615634379.0376,0.313812792301178,-9.81645679473877,0.6178189516067505,0.313812792301178,-9.81645679473877,0.6178189516067505
1729615634382.1387,0.2625952363014221,0.36646154522895813,0.13688966631889343,0.2625952363014221,0.36646154522895813,0.13688966631889343
1729615634502.1833,-0.6864655017852783,-9.061344146728516,1.3533176183700562,-0.6864655017852783,-9.061344146728516,1.3533176183700562
1729615634506.475,-0.008520697243511677,-0.3419588506221771,0.024500930681824684,-0.008520697243511677,-0.3419588506221771,0.024500930681824684
1729615634596.5608,-0.8041452765464783,-9.512450218200684,-0.09806649386882782,-0.8041452765464783,-9.512450218200684,-0.09806649386882782
1729615634601.7617,0.0015969761880114675,-0.1262361705303192,-0.02609965205192566,0.0015969761880114675,-0.1262361705303192,-0.02609965205192566
1729615634728.1794,-0.5197524428367615,-9.914523124694824,0.24516624212265015,-0.5197524428367615,-9.914523124694824,0.24516624212265015
1729615634729.9072,0.08202698081731796,-0.04687255993485451,0.1395530253648758,0.08202698081731796,-0.04687255993485451,0.1395530253648758
1729615634824.8643,-0.6374322175979614,-9.375157356262207,0.9022117853164673,-0.6374322175979614,-9.375157356262207,0.9022117853164673
1729615634827.6497,0.17683850228786469,0.10386628657579422,-0.02183755859732628,0.17683850228786469,0.10386628657579422,-0.02183755859732628
1729615634963.116,-0.37265267968177795,-9.855683326721191,0.6472389101982117,-0.37265267968177795,-9.855683326721191,0.6472389101982117
1729615634962.2744,0.11079000681638718,0.07989593595266342,-0.1821652501821518,0.11079000681638718,0.07989593595266342,-0.1821652501821518
1729615635091.5144,-0.47071918845176697,-9.796843528747559,0.34323275089263916,-0.47071918845176697,-9.796843528747559,0.34323275089263916
1729615635096.9136,0.05326395481824875,-0.20240582525730133,0.0649820938706398,0.05326395481824875,-0.20240582525730133,0.0649820938706398
1729615635190.2942,-0.6962721347808838,-9.767423629760742,0.5687856674194336,-0.6962721347808838,-9.767423629760742,0.5687856674194336
1729615635196.6553,0.03994709625840187,-0.03568674623966217,0.09960418939590454,0.03994709625840187,-0.03568674623966217,0.09960418939590454
1729615635328.5894,-0.6178189516067505,-9.639936447143555,0.5393657088279724,-0.6178189516067505,-9.639936447143555,0.5393657088279724
1729615635326.3298,0.0026616270188242197,0.0010646508308127522,-0.010651743970811367,0.0026616270188242197,0.0010646508308127522,-0.010651743970811367
1729615635427.3826,-0.5982056260108948,-9.73800277709961,0.4314925968647003,-0.5982056260108948,-9.73800277709961,0.4314925968647003
1729615635431.0762,-0.02929535135626793,0.044741515070199966,-0.013847441412508488,-0.02929535135626793,0.044741515070199966,-0.013847441412508488
1729615635555.8384,-0.5687856674194336,-9.698776245117188,0.42168593406677246,-0.5687856674194336,-9.698776245117188,0.42168593406677246
1729615635560.7744,-0.02290220931172371,-0.044741515070199966,-0.17470745742321014,-0.02290220931172371,-0.044741515070199966,-0.17470745742321014
1729615635654.6711,-0.4903324842453003,-9.698776245117188,0.4903324842453003,-0.4903324842453003,-9.698776245117188,0.4903324842453003
1729615635660.5505,0.0250332560390234,-0.09427744895219803,-0.07456918805837631,0.0250332560390234,-0.09427744895219803,-0.07456918805837631
1729615635793.0312,-0.5197524428367615,-9.747809410095215,0.509945809841156,-0.5197524428367615,-9.747809410095215,0.509945809841156
1729615635795.2598,-0.06178639829158783,0.02183755859732628,-0.03142465278506279,-0.06178639829158783,0.02183755859732628,-0.03142465278506279
1729615635892.0112,-0.4903324842453003,-9.826263427734375,0.3628460466861725,-0.4903324842453003,-9.826263427734375,0.3628460466861725
1729615635895.1982,-0.03568674623966217,-0.011184069328010082,-0.011718139983713627,-0.03568674623966217,-0.011184069328010082,-0.011718139983713627
1729615636030.6426,-0.5001391172409058,-9.669356346130371,0.5197524428367615,-0.5001391172409058,-9.669356346130371,0.5197524428367615
1729615636030.1675,0.016510814428329468,-0.05166523531079292,0.0026616270188242197,0.016510814428329468,-0.05166523531079292,0.0026616270188242197
1729615636129.6873,-0.4903324842453003,-9.639936447143555,0.5001391172409058,-0.4903324842453003,-9.639936447143555,0.5001391172409058
1729615636130.1704,0.0026616270188242197,-0.1257038414478302,-0.03462209552526474,0.0026616270188242197,-0.1257038414478302,-0.03462209552526474
1729615636258.477,-0.254972904920578,-9.875296592712402,0.40207263827323914,-0.254972904920578,-9.875296592712402,0.40207263827323914
1729615636265.2092,0.018641861155629158,-0.16139233112335205,0.075103260576725,0.018641861155629158,-0.16139233112335205,0.075103260576725
1729615636367.4885,-0.3922659754753113,-9.708582878112793,0.5785923600196838,-0.3922659754753113,-9.708582878112793,0.5785923600196838
1729615636365.262,-0.02077290788292885,-0.12943187355995178,0.05166523531079292,-0.02077290788292885,-0.12943187355995178,0.05166523531079292
1729615636625.2441,-0.4314925968647003,-9.688969612121582,0.6374322175979614,-0.4314925968647003,-9.688969612121582,0.6374322175979614
1729615636630.5095,-0.02077290788292885,-0.11824779957532883,-0.012250465340912342,-0.02077290788292885,-0.11824779957532883,-0.012250465340912342
1729615636764.098,-0.24516624212265015,-9.659549713134766,0.6766588091850281,-0.24516624212265015,-9.659549713134766,0.6766588091850281
1729615636765.694,0.02183755859732628,-0.16085825860500336,0.008520697243511677,0.02183755859732628,-0.16085825860500336,0.008520697243511677
1729615636863.052,-0.3628460466861725,-9.698776245117188,0.6080122590065002,-0.3628460466861725,-9.698776245117188,0.6080122590065002
1729615636865.5913,-0.009054767899215221,-0.17044711112976074,-0.0031956976745277643,-0.009054767899215221,-0.17044711112976074,-0.0031956976745277643
1729615637001.3652,-0.3040061295032501,-9.767423629760742,0.6080122590065002,-0.3040061295032501,-9.767423629760742,0.6080122590065002
1729615637000.2495,-0.0458061657845974,-0.14115175604820251,0.014913838356733322,-0.0458061657845974,-0.14115175604820251,0.014913838356733322
1729615637100.167,-0.26477953791618347,-9.718389511108398,0.6080122590065002,-0.26477953791618347,-9.718389511108398,0.6080122590065002
1729615637099.998,0.004792673978954554,-0.10439860820770264,0.007988371886312962,0.004792673978954554,-0.10439860820770264,0.007988371886312962
1729615637228.6104,-0.4314925968647003,-9.639936447143555,0.627625584602356,-0.4314925968647003,-9.639936447143555,0.627625584602356
1729615637234.6611,0.0021293016616255045,-0.12889954447746277,-0.007456046529114246,0.0021293016616255045,-0.12889954447746277,-0.007456046529114246
1729615637366.9395,-0.26477953791618347,-9.73800277709961,0.6962721347808838,-0.26477953791618347,-9.73800277709961,0.6962721347808838
1729615637364.339,0.012782790698111057,-0.12091117352247238,-0.09587617218494415,0.012782790698111057,-0.12091117352247238,-0.09587617218494415
1729615637465.7488,-0.19613298773765564,-9.73800277709961,0.6962721347808838,-0.19613298773765564,-9.73800277709961,0.6962721347808838
1729615637469.081,0.024500930681824684,-0.1123887300491333,0.06391744315624237,0.024500930681824684,-0.1123887300491333,0.06391744315624237
1729615637594.2014,-0.37265267968177795,-9.502643585205078,0.7060787677764893,-0.37265267968177795,-9.502643585205078,0.7060787677764893
1729615637598.765,-0.010651743970811367,-0.21731966733932495,-0.005324999336153269,-0.010651743970811367,-0.21731966733932495,-0.005324999336153269
1729615637693.0122,-0.45110589265823364,-9.45361042022705,0.8629851937294006,-0.45110589265823364,-9.45361042022705,0.8629851937294006
1729615637698.5225,0.02290220931172371,-0.210395947098732,-0.030892327427864075,0.02290220931172371,-0.210395947098732,-0.030892327427864075
1729615637831.3882,-0.13729310035705566,-9.796843528747559,0.6668521761894226,-0.13729310035705566,-9.796843528747559,0.6668521761894226
1729615637833.2375,0.018641861155629158,-0.040481165051460266,-0.02609965205192566,0.018641861155629158,-0.040481165051460266,-0.02609965205192566
1729615637930.3425,-0.26477953791618347,-9.708582878112793,0.6864655017852783,-0.26477953791618347,-9.708582878112793,0.6864655017852783
1729615637933.1372,-0.008520697243511677,-0.22690676152706146,0.060187678784132004,-0.008520697243511677,-0.22690676152706146,0.060187678784132004
1729615638068.8938,-0.29419949650764465,-9.639936447143555,0.6080122590065002,-0.29419949650764465,-9.639936447143555,0.6080122590065002
1729615638068.0186,-0.0010646508308127522,-0.08788605034351349,0.034088023006916046,-0.0010646508308127522,-0.08788605034351349,0.034088023006916046
1729615638167.8718,-0.26477953791618347,-9.777230262756348,0.5883989930152893,-0.26477953791618347,-9.777230262756348,0.5883989930152893
1729615638167.9438,-0.05166523531079292,-0.15020652115345,0.0559273287653923,-0.05166523531079292,-0.15020652115345,0.0559273287653923
1729615638296.556,-0.254972904920578,-9.708582878112793,0.5295590758323669,-0.254972904920578,-9.708582878112793,0.5295590758323669
1729615638297.8633,0.02822895534336567,-0.19228465855121613,-0.014913838356733322,0.02822895534336567,-0.19228465855121613,-0.014913838356733322
1729615638395.5537,-0.411879301071167,-9.600709915161133,0.8139519095420837,-0.411879301071167,-9.600709915161133,0.8139519095420837
1729615638402.811,0.03781779482960701,-0.24182234704494476,0.004260348621755838,0.03781779482960701,-0.24182234704494476,0.004260348621755838
1729615638534.1755,-0.21574629843235016,-9.679162979125977,0.6962721347808838,-0.21574629843235016,-9.679162979125977,0.6962721347808838
1729615638532.764,0.004792673978954554,-0.22264641523361206,0.07776663452386856,0.004792673978954554,-0.22264641523361206,0.07776663452386856
1729615638633.215,-0.19613298773765564,-9.639936447143555,0.8041452765464783,-0.19613298773765564,-9.639936447143555,0.8041452765464783
1729615638632.7393,-0.0005323254154063761,-0.18589326739311218,-0.02822895534336567,-0.0005323254154063761,-0.18589326739311218,-0.02822895534336567
1729615638761.981,-0.156906396150589,-9.81645679473877,0.7453053593635559,-0.156906396150589,-9.81645679473877,0.7453053593635559
1729615638767.7249,-0.04207814112305641,-0.24182234704494476,0.015978489071130753,-0.04207814112305641,-0.24182234704494476,0.015978489071130753
1729615638870.7861,-0.21574629843235016,-9.75761604309082,0.7747253179550171,-0.21574629843235016,-9.75761604309082,0.7747253179550171
1729615638867.5754,-0.015978489071130753,-0.24448396265506744,0.11878012120723724,-0.015978489071130753,-0.24448396265506744,0.11878012120723724
1729615638999.2593,-0.40207263827323914,-9.5418701171875,0.8139519095420837,-0.40207263827323914,-9.5418701171875,0.8139519095420837
1729615639002.259,-0.05006825923919678,-0.2237110584974289,-0.0649820938706398,-0.05006825923919678,-0.2237110584974289,-0.0649820938706398
1729615639098.08,-0.19613298773765564,-9.561483383178711,0.6374322175979614,-0.19613298773765564,-9.561483383178711,0.6374322175979614
1729615639102.026,-0.05965535342693329,-0.16565269231796265,-0.0415458157658577,-0.05965535342693329,-0.16565269231796265,-0.0415458157658577
1729615639236.4297,-0.17651969194412231,-9.659549713134766,0.9708583354949951,-0.17651969194412231,-9.659549713134766,0.9708583354949951
1729615639236.7117,0.006391395349055529,-0.3211859464645386,0.034088023006916046,0.006391395349055529,-0.3211859464645386,0.034088023006916046
1729615639335.2568,-0.2843928337097168,-9.659549713134766,0.6080122590065002,-0.2843928337097168,-9.659549713134766,0.6080122590065002
1729615639336.4797,-0.05166523531079292,-0.5374409556388855,0.11611675471067429,-0.05166523531079292,-0.5374409556388855,0.11611675471067429
1729615639463.7295,-0.27458620071411133,-9.81645679473877,0.5491724014282227,-0.27458620071411133,-9.81645679473877,0.5491724014282227
1729615639471.1672,0.023436279967427254,-0.09054942429065704,0.05166523531079292,0.023436279967427254,-0.09054942429065704,0.05166523531079292
1729615639562.5554,-0.35303938388824463,-9.532063484191895,0.6374322175979614,-0.35303938388824463,-9.532063484191895,0.6374322175979614
1729615639570.936,0.06178639829158783,-0.17896954715251923,-0.01970651187002659,0.06178639829158783,-0.17896954715251923,-0.01970651187002659
1729615639700.9062,-0.17651969194412231,-9.590903282165527,0.7060787677764893,-0.17651969194412231,-9.590903282165527,0.7060787677764893
1729615639700.6362,-0.025565581396222115,-0.18908897042274475,-0.11984477192163467,-0.025565581396222115,-0.18908897042274475,-0.11984477192163467
1729615639799.7334,-0.0784531980752945,-9.728196144104004,0.4805258512496948,-0.0784531980752945,-9.728196144104004,0.4805258512496948
1729615639800.4065,-0.043676864355802536,-0.23649559915065765,-0.006923720706254244,-0.043676864355802536,-0.23649559915065765,-0.006923720706254244
1729615639938.082,-0.10787314921617508,-9.688969612121582,0.5295590758323669,-0.10787314921617508,-9.688969612121582,0.5295590758323669
1729615639935.0852,0.0697765126824379,-0.439433753490448,-0.05326395481824875,0.0697765126824379,-0.439433753490448,-0.05326395481824875
1729615640036.9077,-0.03922659903764725,-9.610516548156738,0.823758602142334,-0.03922659903764725,-9.610516548156738,0.823758602142334
1729615640034.847,0.02077290788292885,-0.37232059240341187,0.05805837735533714,0.02077290788292885,-0.37232059240341187,0.05805837735533714
1729615640165.3757,0.019613299518823624,-9.561483383178711,0.05883989855647087,0.019613299518823624,-9.561483383178711,0.05883989855647087
1729615640169.5254,-0.18802431225776672,-0.1869579255580902,-0.10919128358364105,-0.18802431225776672,-0.1869579255580902,-0.10919128358364105
1729615640264.1978,0.2059396505355835,-9.63012981414795,0.5491724014282227,0.2059396505355835,-9.63012981414795,0.5491724014282227
1729615640269.287,-0.012782790698111057,-0.32065361738204956,0.1539345383644104,-0.012782790698111057,-0.32065361738204956,0.1539345383644104
1729615640402.5571,0.254972904920578,-9.894909858703613,0.2843928337097168,0.254972904920578,-9.894909858703613,0.2843928337097168
1729615640403.966,-0.05326395481824875,-0.38563746213912964,0.14647676050662994,-0.05326395481824875,-0.38563746213912964,0.14647676050662994
1729615640501.3833,0.0,-9.904716491699219,0.23535959422588348,0.0,-9.904716491699219,0.23535959422588348
1729615640503.7292,0.021305233240127563,-0.3739175796508789,0.13422629237174988,0.021305233240127563,-0.3739175796508789,0.13422629237174988
1729615640629.8574,-0.11767979711294174,-9.708582878112793,0.5785923600196838,-0.11767979711294174,-9.708582878112793,0.5785923600196838
1729615640638.4084,0.05965535342693329,-0.22637443244457245,0.08522267639636993,0.05965535342693329,-0.22637443244457245,0.08522267639636993
1729615640738.5618,-0.09806649386882782,-9.73800277709961,0.5785923600196838,-0.09806649386882782,-9.73800277709961,0.5785923600196838
1729615640738.171,0.010119418613612652,-0.26419222354888916,-0.010651743970811367,0.010119418613612652,-0.26419222354888916,-0.010651743970811367
1729615640867.0723,-0.2059396505355835,-9.75761604309082,0.6472389101982117,-0.2059396505355835,-9.75761604309082,0.6472389101982117
1729615640867.9058,-0.010119418613612652,-0.31692561507225037,0.03142465278506279,-0.010119418613612652,-0.31692561507225037,0.03142465278506279
1729615640965.9758,-0.2059396505355835,-9.698776245117188,0.5785923600196838,-0.2059396505355835,-9.698776245117188,0.5785923600196838
1729615640967.7512,-0.014379767701029778,-0.07456918805837631,0.02290220931172371,-0.014379767701029778,-0.07456918805837631,0.02290220931172371
1729615641104.4543,-0.13729310035705566,-9.777230262756348,0.5197524428367615,-0.13729310035705566,-9.777230262756348,0.5197524428367615
1729615641102.5508,-0.009587093256413937,-0.19974245131015778,0.007456046529114246,-0.009587093256413937,-0.19974245131015778,0.007456046529114246
1729615641203.377,-0.17651969194412231,-9.81645679473877,0.5589790344238281,-0.17651969194412231,-9.81645679473877,0.5589790344238281
1729615641202.409,-0.03142465278506279,-0.20773257315158844,0.0015969761880114675,-0.03142465278506279,-0.20773257315158844,0.0015969761880114675
1729615641331.9736,-0.11767979711294174,-9.63012981414795,0.47071918845176697,-0.11767979711294174,-9.63012981414795,0.47071918845176697
1729615641337.2246,0.0026616270188242197,-0.1869579255580902,-0.0324910469353199,0.0026616270188242197,-0.1869579255580902,-0.0324910469353199
1729615641430.9038,-0.06864655017852783,-9.659549713134766,0.5491724014282227,-0.06864655017852783,-9.659549713134766,0.5491724014282227
1729615641437.095,0.02396860532462597,-0.31532686948776245,-0.04953593388199806,0.02396860532462597,-0.31532686948776245,-0.04953593388199806
1729615641569.417,0.0,-9.64974308013916,0.6766588091850281,0.0,-9.64974308013916,0.6766588091850281
1729615641571.9265,-0.02183755859732628,-0.16725140810012817,-0.031958721578121185,-0.02183755859732628,-0.16725140810012817,-0.031958721578121185
1729615641698.0488,0.0,-9.81645679473877,0.6766588091850281,0.0,-9.81645679473877,0.6766588091850281
1729615641701.774,-0.0015969761880114675,-0.12410686910152435,-0.007988371886312962,-0.0015969761880114675,-0.12410686910152435,-0.007988371886312962
1729615641796.9983,-0.009806649759411812,-9.659549713134766,0.7354987263679504,-0.009806649759411812,-9.659549713134766,0.7354987263679504
1729615641806.6565,-0.024500930681824684,-0.060187678784132004,-0.009054767899215221,-0.024500930681824684,-0.060187678784132004,-0.009054767899215221
1729615641935.3955,0.019613299518823624,-9.64974308013916,0.627625584602356,0.019613299518823624,-9.64974308013916,0.627625584602356
1729615641936.3665,-0.015978489071130753,-0.1965467631816864,0.05539500340819359,-0.015978489071130753,-0.1965467631816864,0.05539500340819359
1729615642034.2363,-0.08825984597206116,-9.875296592712402,0.6080122590065002,-0.08825984597206116,-9.875296592712402,0.6080122590065002
1729615642036.1372,-0.07243988662958145,-0.09587617218494415,0.023436279967427254,-0.07243988662958145,-0.09587617218494415,0.023436279967427254
1729615642172.6165,0.0,-9.688969612121582,0.5491724014282227,0.0,-9.688969612121582,0.5491724014282227
1729615642170.8267,-0.0015969761880114675,-0.1118546575307846,-0.033023372292518616,-0.0015969761880114675,-0.1118546575307846,-0.033023372292518616
1729615642469.1436,-0.06864655017852783,-9.718389511108398,0.509945809841156,-0.06864655017852783,-9.718389511108398,0.509945809841156
1729615642475.1274,-0.017577210441231728,-0.1304982602596283,0.018109535798430443,-0.017577210441231728,-0.1304982602596283,0.018109535798430443
1729615642597.6348,-0.0784531980752945,-9.688969612121582,0.509945809841156,-0.0784531980752945,-9.688969612121582,0.509945809841156
1729615642604.8296,0.0005323254154063761,-0.07883128523826599,0.018109535798430443,0.0005323254154063761,-0.07883128523826599,0.018109535798430443
1729615642706.3599,-0.09806649386882782,-9.767423629760742,0.6080122590065002,-0.09806649386882782,-9.767423629760742,0.6080122590065002
1729615642704.5999,-0.013315116055309772,-0.07563558965921402,-0.03994709625840187,-0.013315116055309772,-0.07563558965921402,-0.03994709625840187
1729615642834.8547,-0.13729310035705566,-9.728196144104004,0.5982056260108948,-0.13729310035705566,-9.728196144104004,0.5982056260108948
1729615642839.2905,0.0010646508308127522,-0.056991979479789734,-0.009054767899215221,0.0010646508308127522,-0.056991979479789734,-0.009054767899215221
1729615642933.699,0.0784531980752945,-9.610516548156738,0.627625584602356,0.0784531980752945,-9.610516548156738,0.627625584602356
1729615642939.0605,-0.0021293016616255045,-0.03462209552526474,-0.010119418613612652,-0.0021293016616255045,-0.03462209552526474,-0.010119418613612652
1729615643032.544,0.05883989855647087,-9.688969612121582,0.5197524428367615,0.05883989855647087,-9.688969612121582,0.5197524428367615
1729615643038.8308,0.0021293016616255045,-0.06391744315624237,0.017577210441231728,0.0021293016616255045,-0.06391744315624237,0.017577210441231728
1729615643170.9285,-0.06864655017852783,-9.708582878112793,0.627625584602356,-0.06864655017852783,-9.708582878112793,0.627625584602356
1729615643173.5203,-0.0031956976745277643,-0.0607217475771904,0.03781779482960701,-0.0031956976745277643,-0.0607217475771904,0.03781779482960701
1729615643269.7698,-0.10787314921617508,-9.600709915161133,0.5295590758323669,-0.10787314921617508,-9.600709915161133,0.5295590758323669
1729615643273.2898,0.007988371886312962,-0.031958721578121185,-0.0559273287653923,0.007988371886312962,-0.031958721578121185,-0.0559273287653923
1729615643398.2551,0.11767979711294174,-9.728196144104004,0.4412992298603058,0.11767979711294174,-9.728196144104004,0.4412992298603058
1729615643407.9807,0.0015969761880114675,-0.0559273287653923,-0.04846953600645065,0.0015969761880114675,-0.0559273287653923,-0.04846953600645065
1729615643506.9834,0.14709974825382233,-9.806650161743164,0.4412992298603058,0.14709974825382233,-9.806650161743164,0.4412992298603058
1729615643502.7625,-0.035154420882463455,-0.04207814112305641,0.05859070271253586,-0.035154420882463455,-0.04207814112305641,0.05859070271253586
1729615643635.485,0.11767979711294174,-9.75761604309082,0.47071918845176697,0.11767979711294174,-9.75761604309082,0.47071918845176697
1729615643637.453,0.021305233240127563,-0.1118546575307846,0.0250332560390234,0.021305233240127563,-0.1118546575307846,0.0250332560390234
1729615643734.326,0.019613299518823624,-9.669356346130371,0.5785923600196838,0.019613299518823624,-9.669356346130371,0.5785923600196838
1729615643737.2239,0.019174186512827873,0.01970651187002659,0.019174186512827873,0.019174186512827873,0.01970651187002659,0.019174186512827873
1729615643872.7166,0.019613299518823624,-9.698776245117188,0.47071918845176697,0.019613299518823624,-9.698776245117188,0.47071918845176697
1729615643871.9136,0.013847441412508488,-0.07936360687017441,0.03355569764971733,0.013847441412508488,-0.07936360687017441,0.03355569764971733
1729615643971.5627,-0.19613298773765564,-9.688969612121582,0.5687856674194336,-0.19613298773765564,-9.688969612121582,0.5687856674194336
1729615643971.6829,0.003728023264557123,-0.01970651187002659,0.035154420882463455,0.003728023264557123,-0.01970651187002659,0.035154420882463455
1729615644100.0605,-0.03922659903764725,-9.767423629760742,0.47071918845176697,-0.03922659903764725,-9.767423629760742,0.47071918845176697
1729615644106.371,0.010119418613612652,0.04687255993485451,-0.0559273287653923,0.010119418613612652,0.04687255993485451,-0.0559273287653923
1729615644198.91,-0.05883989855647087,-9.688969612121582,0.4609125256538391,-0.05883989855647087,-9.688969612121582,0.4609125256538391
1729615644206.1404,-0.0010646508308127522,0.06604674458503723,-0.006391395349055529,-0.0010646508308127522,0.06604674458503723,-0.006391395349055529
1729615644337.294,0.009806649759411812,-9.688969612121582,0.5589790344238281,0.009806649759411812,-9.688969612121582,0.5589790344238281
1729615644340.8289,-0.013847441412508488,-0.0415458157658577,-0.021305233240127563,-0.013847441412508488,-0.0415458157658577,-0.021305233240127563
1729615644465.7947,0.03922659903764725,-9.796843528747559,0.4412992298603058,0.03922659903764725,-9.796843528747559,0.4412992298603058
1729615644470.5286,-0.006391395349055529,-0.021305233240127563,0.008520697243511677,-0.006391395349055529,-0.021305233240127563,0.008520697243511677
1729615644574.5168,0.019613299518823624,-9.698776245117188,0.5001391172409058,0.019613299518823624,-9.698776245117188,0.5001391172409058
1729615644570.2979,0.020240582525730133,-0.053796280175447464,0.012250465340912342,0.020240582525730133,-0.053796280175447464,0.012250465340912342
1729615644703.0046,0.009806649759411812,-9.777230262756348,0.4412992298603058,0.009806649759411812,-9.777230262756348,0.4412992298603058
1729615644704.9866,-0.013315116055309772,0.004260348621755838,-0.03142465278506279,-0.013315116055309772,0.004260348621755838,-0.03142465278506279
1729615644801.8442,-0.029419949278235435,-9.698776245117188,0.509945809841156,-0.029419949278235435,-9.698776245117188,0.509945809841156
1729615644804.757,-0.015446163713932037,0.0021293016616255045,0.015978489071130753,-0.015446163713932037,0.0021293016616255045,0.015978489071130753
1729615644940.2158,0.009806649759411812,-9.639936447143555,0.5001391172409058,0.009806649759411812,-9.639936447143555,0.5001391172409058
1729615644939.444,0.0031956976745277643,0.016510814428329468,-0.036219071596860886,0.0031956976745277643,0.016510814428329468,-0.036219071596860886
1729615645039.05,-0.009806649759411812,-9.747809410095215,0.45110589265823364,-0.009806649759411812,-9.747809410095215,0.45110589265823364
1729615645039.2122,-0.02609965205192566,0.02716430276632309,-0.013847441412508488,-0.02609965205192566,0.02716430276632309,-0.013847441412508488
1729615645167.5432,0.029419949278235435,-9.679162979125977,0.4412992298603058,0.029419949278235435,-9.679162979125977,0.4412992298603058
1729615645173.899,0.011184069328010082,0.030892327427864075,-0.011184069328010082,0.011184069328010082,0.030892327427864075,-0.011184069328010082
1729615645305.9167,0.0784531980752945,-9.75761604309082,0.6080122590065002,0.0784531980752945,-9.75761604309082,0.6080122590065002
1729615645303.598,-0.012782790698111057,0.06711314618587494,-0.005324999336153269,-0.012782790698111057,0.06711314618587494,-0.005324999336153269
1729615645404.759,0.10787314921617508,-9.728196144104004,0.34323275089263916,0.10787314921617508,-9.728196144104004,0.34323275089263916
1729615645408.3547,0.010651743970811367,0.20879721641540527,0.015978489071130753,0.010651743970811367,0.20879721641540527,0.015978489071130753
1729615645533.256,0.19613298773765564,-9.826263427734375,0.4609125256538391,0.19613298773765564,-9.826263427734375,0.4609125256538391
1729615645538.054,0.004260348621755838,0.2940216362476349,-0.0250332560390234,0.004260348621755838,0.2940216362476349,-0.0250332560390234
1729615645641.9788,-0.029419949278235435,-9.443803787231445,0.6374322175979614,-0.029419949278235435,-9.443803787231445,0.6374322175979614
1729615645637.822,0.0015969761880114675,0.22051537036895752,-0.04420918971300125,0.0015969761880114675,0.22051537036895752,-0.04420918971300125
1729615645770.473,0.09806649386882782,-9.100570678710938,0.823758602142334,0.09806649386882782,-9.100570678710938,0.823758602142334
1729615645772.5088,-0.30573979020118713,0.5502254962921143,-0.31532686948776245,-0.30573979020118713,0.5502254962921143,-0.31532686948776245
1729615645869.3162,0.09806649386882782,-9.865489959716797,0.627625584602356,0.09806649386882782,-9.865489959716797,0.627625584602356
1729615645872.278,-0.2892272174358368,0.342492938041687,-0.034088023006916046,-0.2892272174358368,0.342492938041687,-0.034088023006916046
1729615646008.112,0.5589790344238281,-9.953749656677246,0.4314925968647003,0.5589790344238281,-9.953749656677246,0.4314925968647003
1729615646007.3784,0.09268046915531158,0.299880713224411,-0.18962128460407257,0.09268046915531158,0.299880713224411,-0.18962128460407257
1729615646137.062,-0.21574629843235016,-9.571290016174316,0.32361945509910583,-0.21574629843235016,-9.571290016174316,0.32361945509910583
1729615646142.5505,-0.02929535135626793,0.40055131912231445,0.15020652115345,-0.02929535135626793,0.40055131912231445,0.15020652115345
1729615646236.262,-0.26477953791618347,-10.208722114562988,0.03922659903764725,-0.26477953791618347,-10.208722114562988,0.03922659903764725
1729615646242.6853,0.2748457193374634,0.4948287606239319,0.35314467549324036,0.2748457193374634,0.4948287606239319,0.35314467549324036
1729615646375.1475,0.4903324842453003,-9.973362922668457,0.4903324842453003,0.4903324842453003,-9.973362922668457,0.4903324842453003
1729615646372.871,0.1629893183708191,-0.04634023457765579,0.08948477357625961,0.1629893183708191,-0.04634023457765579,0.08948477357625961
1729615646474.3643,0.13729310035705566,-9.561483383178711,0.6766588091850281,0.13729310035705566,-9.561483383178711,0.6766588091850281
1729615646473.0212,-0.10599558800458908,0.3504813015460968,-0.23862490057945251,-0.10599558800458908,0.3504813015460968,-0.23862490057945251
1729615646603.3535,0.19613298773765564,-9.590903282165527,0.019613299518823624,0.19613298773765564,-9.590903282165527,0.019613299518823624
1729615646608.2356,0.03462209552526474,0.5800531506538391,-0.05486267805099487,0.03462209552526474,0.5800531506538391,-0.05486267805099487
1729615646702.5867,0.6766588091850281,-9.698776245117188,0.42168593406677246,0.6766588091850281,-9.698776245117188,0.42168593406677246
1729615646708.4016,-0.012250465340912342,0.15713024139404297,0.020240582525730133,-0.012250465340912342,0.15713024139404297,0.020240582525730133
1729615646841.5227,-0.5197524428367615,-9.747809410095215,1.1081514358520508,-0.5197524428367615,-9.747809410095215,1.1081514358520508
1729615646843.6372,0.21572093665599823,-0.07829895615577698,0.14168408513069153,0.21572093665599823,-0.07829895615577698,0.14168408513069153
1729615646970.2026,-0.04903324693441391,-8.659272193908691,1.421964168548584,-0.04903324693441391,-8.659272193908691,1.421964168548584
1729615646978.4949,0.18056651949882507,0.9257417917251587,-0.4687291085720062,0.18056651949882507,0.9257417917251587,-0.4687291085720062
1729615647078.8843,0.7158854603767395,-9.483030319213867,0.5785923600196838,0.7158854603767395,-9.483030319213867,0.5785923600196838
1729615647078.2236,-0.02929535135626793,0.8021672368049622,0.04687255993485451,-0.02929535135626793,0.8021672368049622,0.04687255993485451
1729615647207.3293,0.8335652351379395,-9.845876693725586,0.8041452765464783,0.8335652351379395,-9.845876693725586,0.8041452765464783
1729615647212.8567,-0.1075943112373352,0.32491397857666016,0.0021293016616255045,-0.1075943112373352,0.32491397857666016,0.0021293016616255045
1729615647306.1301,0.35303938388824463,-9.787036895751953,0.14709974825382233,0.35303938388824463,-9.787036895751953,0.14709974825382233
1729615647312.583,0.06285104900598526,0.4266509711742401,-0.036219071596860886,0.06285104900598526,0.4266509711742401,-0.036219071596860886
1729615647444.452,0.5491724014282227,-9.620323181152344,1.1473779678344727,0.5491724014282227,-9.620323181152344,1.1473779678344727
1729615647442.226,-0.09108174592256546,0.37604862451553345,0.0607217475771904,-0.09108174592256546,0.37604862451553345,0.0607217475771904
1729615647543.2495,0.4805258512496948,-9.610516548156738,1.2944778203964233,0.4805258512496948,-9.610516548156738,1.2944778203964233
1729615647541.9502,0.0415458157658577,0.5235917568206787,0.052731629461050034,0.0415458157658577,0.5235917568206787,0.052731629461050034
1729615647671.694,0.40207263827323914,-9.639936447143555,0.5687856674194336,0.40207263827323914,-9.639936447143555,0.5687856674194336
1729615647676.5764,-0.07297221571207047,0.420791894197464,0.06817779690027237,-0.07297221571207047,0.420791894197464,0.06817779690027237
1729615647770.4902,0.509945809841156,-9.620323181152344,0.7060787677764893,0.509945809841156,-9.620323181152344,0.7060787677764893
1729615647776.299,-0.15180349349975586,0.34781792759895325,0.06551442295312881,-0.15180349349975586,0.34781792759895325,0.06551442295312881
1729615647908.8025,0.13729310035705566,-9.914523124694824,0.16671304404735565,0.13729310035705566,-9.914523124694824,0.16671304404735565
1729615647910.9268,0.013315116055309772,0.39948490262031555,0.03568674623966217,0.013315116055309772,0.39948490262031555,0.03568674623966217
1729615648007.6191,0.254972904920578,-9.63012981414795,1.2650578022003174,0.254972904920578,-9.63012981414795,1.2650578022003174
1729615648010.6619,-0.07350453734397888,0.2428869903087616,0.0026616270188242197,-0.07350453734397888,0.2428869903087616,0.0026616270188242197
1729615648145.9536,0.47071918845176697,-10.110655784606934,1.019891619682312,0.47071918845176697,-10.110655784606934,1.019891619682312
1729615648145.304,-0.018109535798430443,0.3270450234413147,-0.007456046529114246,-0.018109535798430443,0.3270450234413147,-0.007456046529114246
1729615648274.4119,0.24516624212265015,-9.708582878112793,0.8433718681335449,0.24516624212265015,-9.708582878112793,0.8433718681335449
1729615648274.9575,-0.033023372292518616,0.09640849381685257,0.02183755859732628,-0.033023372292518616,0.09640849381685257,0.02183755859732628
1729615648373.2244,0.0784531980752945,-10.169495582580566,0.4609125256538391,0.0784531980752945,-10.169495582580566,0.4609125256538391
1729615648379.6775,-0.11558442562818527,0.14860780537128448,0.14168408513069153,-0.11558442562818527,0.14860780537128448,0.14168408513069153
1729615648511.5537,0.019613299518823624,-9.522256851196289,0.7747253179550171,0.019613299518823624,-9.522256851196289,0.7747253179550171
1729615648509.3286,0.0010646508308127522,0.28336817026138306,-0.07563558965921402,0.0010646508308127522,0.28336817026138306,-0.07563558965921402
1729615648610.3704,0.06864655017852783,-9.561483383178711,0.6766588091850281,0.06864655017852783,-9.561483383178711,0.6766588091850281
1729615648609.0588,-0.006923720706254244,0.2759103775024414,-0.016510814428329468,-0.006923720706254244,0.2759103775024414,-0.016510814428329468
1729615648738.8274,0.22555294632911682,-9.571290016174316,0.8139519095420837,0.22555294632911682,-9.571290016174316,0.8139519095420837
1729615648743.694,0.0031956976745277643,0.23596327006816864,-0.006923720706254244,0.0031956976745277643,0.23596327006816864,-0.006923720706254244
1729615648877.1694,0.45110589265823364,-9.855683326721191,0.7845319509506226,0.45110589265823364,-9.855683326721191,0.7845319509506226
1729615648878.328,-0.04687255993485451,0.2791060507297516,-0.06764546781778336,-0.04687255993485451,0.2791060507297516,-0.06764546781778336
1729615648975.9902,0.45110589265823364,-10.238142013549805,0.6668521761894226,0.45110589265823364,-10.238142013549805,0.6668521761894226
1729615648978.0642,0.018641861155629158,0.31692561507225037,-0.02822895534336567,0.018641861155629158,0.31692561507225037,-0.02822895534336567
1729615649104.4448,0.05883989855647087,-9.610516548156738,0.6080122590065002,0.05883989855647087,-9.610516548156738,0.6080122590065002
1729615649112.7063,0.04261046648025513,0.18322989344596863,0.05326395481824875,0.04261046648025513,0.18322989344596863,0.05326395481824875
1729615649213.1345,-0.10787314921617508,-9.590903282165527,1.1277647018432617,-0.10787314921617508,-9.590903282165527,1.1277647018432617
1729615649212.4407,0.015446163713932037,0.21412396430969238,0.0005323254154063761,0.015446163713932037,0.21412396430969238,0.0005323254154063761
1729615649341.5876,-0.019613299518823624,-9.826263427734375,0.6962721347808838,-0.019613299518823624,-9.826263427734375,0.6962721347808838
1729615649342.0933,-0.022369883954524994,0.1784372180700302,0.018641861155629158,-0.022369883954524994,0.1784372180700302,0.018641861155629158
1729615649470.0483,0.0,-9.826263427734375,0.8629851937294006,0.0,-9.826263427734375,0.8629851937294006
1729615649476.7312,0.02716430276632309,0.21359163522720337,-0.029827676713466644,0.02716430276632309,0.21359163522720337,-0.029827676713466644
1729615649578.7434,0.11767979711294174,-9.826263427734375,0.6472389101982117,0.11767979711294174,-9.826263427734375,0.6472389101982117
1729615649576.4626,-0.0010646508308127522,0.1773708313703537,-0.014913838356733322,-0.0010646508308127522,0.1773708313703537,-0.014913838356733322
1729615649707.1985,0.04903324693441391,-9.698776245117188,0.8629851937294006,0.04903324693441391,-9.698776245117188,0.8629851937294006
1729615649711.098,0.02183755859732628,0.20453687012195587,0.04793721064925194,0.02183755859732628,0.20453687012195587,0.04793721064925194
1729615649806.0183,-0.22555294632911682,-9.639936447143555,0.627625584602356,-0.22555294632911682,-9.639936447143555,0.627625584602356
1729615649810.8271,-0.039414770901203156,0.19228465855121613,-0.012250465340912342,-0.039414770901203156,0.19228465855121613,-0.012250465340912342
1729615649944.3643,-0.127486452460289,-9.679162979125977,0.7354987263679504,-0.127486452460289,-9.679162979125977,0.7354987263679504
1729615649945.4658,-0.025565581396222115,0.16991478204727173,-0.01970651187002659,-0.025565581396222115,0.16991478204727173,-0.01970651187002659
1729615650043.1826,-0.14709974825382233,-9.600709915161133,0.5589790344238281,-0.14709974825382233,-9.600709915161133,0.5589790344238281
1729615650045.203,-0.003728023264557123,0.1214434951543808,-0.006391395349055529,-0.003728023264557123,0.1214434951543808,-0.006391395349055529
1729615650171.6533,-0.009806649759411812,-9.620323181152344,0.8041452765464783,-0.009806649759411812,-9.620323181152344,0.8041452765464783
1729615650174.8591,-0.005324999336153269,0.15606559813022614,-0.030892327427864075,-0.005324999336153269,0.15606559813022614,-0.030892327427864075
1729615650310.0066,-0.08825984597206116,-9.679162979125977,0.4903324842453003,-0.08825984597206116,-9.679162979125977,0.4903324842453003
1729615650309.5007,0.005859069991856813,0.18376222252845764,-0.018641861155629158,0.005859069991856813,0.18376222252845764,-0.018641861155629158
1729615650408.8281,0.11767979711294174,-9.826263427734375,0.8335652351379395,0.11767979711294174,-9.826263427734375,0.8335652351379395
1729615650409.2349,-0.024500930681824684,0.10919128358364105,0.02716430276632309,-0.024500930681824684,0.10919128358364105,0.02716430276632309
1729615650537.2927,-0.029419949278235435,-9.806650161743164,0.6374322175979614,-0.029419949278235435,-9.806650161743164,0.6374322175979614
1729615650543.874,-0.036219071596860886,0.19228465855121613,0.03888244554400444,-0.036219071596860886,0.19228465855121613,0.03888244554400444
1729615650645.9941,-0.18632633984088898,-9.561483383178711,0.8433718681335449,-0.18632633984088898,-9.561483383178711,0.8433718681335449
1729615650643.6062,-0.024500930681824684,0.1864255964756012,0.052731629461050034,-0.024500930681824684,0.1864255964756012,0.052731629461050034
1729615650774.4583,-0.16671304404735565,-9.787036895751953,0.5883989930152893,-0.16671304404735565,-9.787036895751953,0.5883989930152893
1729615650778.2437,-0.03142465278506279,0.15606559813022614,0.06658081710338593,-0.03142465278506279,0.15606559813022614,0.06658081710338593
1729615650873.277,-0.29419949650764465,-9.669356346130371,0.6864655017852783,-0.29419949650764465,-9.669356346130371,0.6864655017852783
1729615650877.973,-0.040481165051460266,0.16458803415298462,0.009587093256413937,-0.040481165051460266,0.16458803415298462,0.009587093256413937
1729615651011.626,-0.11767979711294174,-9.728196144104004,0.6374322175979614,-0.11767979711294174,-9.728196144104004,0.6374322175979614
1729615651012.6104,0.0021293016616255045,0.17044711112976074,-0.09694082289934158,0.0021293016616255045,0.17044711112976074,-0.09694082289934158
1729615651140.0903,0.06864655017852783,-9.845876693725586,0.6864655017852783,0.06864655017852783,-9.845876693725586,0.6864655017852783
1729615651142.2573,-0.014913838356733322,0.16139233112335205,-0.013847441412508488,-0.014913838356733322,0.16139233112335205,-0.013847441412508488
1729615651238.9045,0.029419949278235435,-9.75761604309082,0.8335652351379395,0.029419949278235435,-9.75761604309082,0.8335652351379395
1729615651241.985,-0.028761280700564384,0.09268046915531158,0.017043139785528183,-0.028761280700564384,0.09268046915531158,0.017043139785528183
1729615651377.2483,-0.156906396150589,-9.522256851196289,0.6668521761894226,-0.156906396150589,-9.522256851196289,0.6668521761894226
1729615651376.6165,-0.011184069328010082,0.13156291842460632,-0.043676864355802536,-0.011184069328010082,0.13156291842460632,-0.043676864355802536
1729615651476.0662,-0.029419949278235435,-9.679162979125977,0.8825984597206116,-0.029419949278235435,-9.679162979125977,0.8825984597206116
1729615651476.342,-0.01970651187002659,0.08628732711076736,0.0005323254154063761,-0.01970651187002659,0.08628732711076736,0.0005323254154063761
1729615652039.313,0.03922659903764725,-9.826263427734375,0.6962721347808838,0.03922659903764725,-9.826263427734375,0.6962721347808838
1729615652044.7693,-0.022369883954524994,0.06551442295312881,0.033023372292518616,-0.022369883954524994,0.06551442295312881,0.033023372292518616
1729615652138.1309,-0.029419949278235435,-9.718389511108398,0.6864655017852783,-0.029419949278235435,-9.718389511108398,0.6864655017852783
1729615652144.4958,-0.007988371886312962,0.10812663286924362,0.010119418613612652,-0.007988371886312962,0.10812663286924362,0.010119418613612652
1729615652236.9468,-0.06864655017852783,-9.698776245117188,0.9022117853164673,-0.06864655017852783,-9.698776245117188,0.9022117853164673
1729615652244.221,0.009587093256413937,0.1214434951543808,-0.01970651187002659,0.009587093256413937,0.1214434951543808,-0.01970651187002659
1729615652375.2878,0.0784531980752945,-9.845876693725586,0.7943386435508728,0.0784531980752945,-9.845876693725586,0.7943386435508728
1729615652378.8489,0.053796280175447464,0.1262361705303192,0.016510814428329468,0.053796280175447464,0.1262361705303192,0.016510814428329468
1729615652474.111,-0.18632633984088898,-9.424190521240234,0.8825984597206116,-0.18632633984088898,-9.424190521240234,0.8825984597206116
1729615652478.5718,0.018641861155629158,0.10120291262865067,-0.052731629461050034,0.018641861155629158,0.10120291262865067,-0.052731629461050034
1729615652612.4475,0.029419949278235435,-9.590903282165527,0.8629851937294006,0.029419949278235435,-9.590903282165527,0.8629851937294006
1729615652613.1963,0.07989593595266342,0.14541210234165192,-0.056991979479789734,0.07989593595266342,0.14541210234165192,-0.056991979479789734
1729615652711.2605,0.32361945509910583,-9.875296592712402,1.010084867477417,0.32361945509910583,-9.875296592712402,1.010084867477417
1729615652712.9155,-0.006391395349055529,0.1443474441766739,-0.10919128358364105,-0.006391395349055529,0.1443474441766739,-0.10919128358364105
1729615652839.707,0.18632633984088898,-9.718389511108398,0.9708583354949951,0.18632633984088898,-9.718389511108398,0.9708583354949951
1729615652842.5505,-0.016510814428329468,0.08042825758457184,0.0010646508308127522,-0.016510814428329468,0.08042825758457184,0.0010646508308127522
1729615652938.523,0.08825984597206116,-9.777230262756348,0.9120184183120728,0.08825984597206116,-9.777230262756348,0.9120184183120728
1729615652942.2764,-0.0015969761880114675,0.14168408513069153,0.02609965205192566,-0.0015969761880114675,0.14168408513069153,0.02609965205192566
1729615653076.8826,0.009806649759411812,-9.473223686218262,1.0983448028564453,0.009806649759411812,-9.473223686218262,1.0983448028564453
1729615653076.9194,0.016510814428329468,0.19228465855121613,-0.006923720706254244,0.016510814428329468,0.19228465855121613,-0.006923720706254244
1729615653175.7122,0.14709974825382233,-9.728196144104004,0.9806649684906006,0.14709974825382233,-9.728196144104004,0.9806649684906006
1729615653176.6538,-0.05912302806973457,0.20400279760360718,-0.0841580256819725,-0.05912302806973457,0.20400279760360718,-0.0841580256819725
1729615653304.184,0.29419949650764465,-9.894909858703613,0.9414383769035339,0.29419949650764465,-9.894909858703613,0.9414383769035339
1729615653311.294,-0.015446163713932037,0.31692561507225037,-0.0649820938706398,-0.015446163713932037,0.31692561507225037,-0.0649820938706398
1729615653412.8914,0.27458620071411133,-10.081235885620117,0.6472389101982117,0.27458620071411133,-10.081235885620117,0.6472389101982117
1729615653411.0261,-0.007456046529114246,0.28176942467689514,0.06711314618587494,-0.007456046529114246,0.28176942467689514,0.06711314618587494
1729615653541.3574,0.10787314921617508,-9.865489959716797,0.7943386435508728,0.10787314921617508,-9.865489959716797,0.7943386435508728
1729615653545.6633,-0.011718139983713627,0.2950862944126129,-0.027696629986166954,-0.011718139983713627,0.2950862944126129,-0.027696629986166954
1729615653640.1797,0.03922659903764725,-9.777230262756348,0.7354987263679504,0.03922659903764725,-9.777230262756348,0.7354987263679504
1729615653645.3933,0.037283722311258316,0.2839004695415497,-0.016510814428329468,0.037283722311258316,0.2839004695415497,-0.016510814428329468
1729615653778.5283,0.11767979711294174,-9.63012981414795,0.8139519095420837,0.11767979711294174,-9.63012981414795,0.8139519095420837
1729615653780.0276,-0.12463919073343277,0.2764444351196289,0.0250332560390234,-0.12463919073343277,0.2764444351196289,0.0250332560390234
1729615653877.3435,-0.06864655017852783,-9.473223686218262,0.9218250513076782,-0.06864655017852783,-9.473223686218262,0.9218250513076782
1729615653879.7554,-0.04900360852479935,0.21146059036254883,0.012782790698111057,-0.04900360852479935,0.21146059036254883,0.012782790698111057
1729615654005.8264,0.029419949278235435,-9.845876693725586,0.7453053593635559,0.029419949278235435,-9.845876693725586,0.7453053593635559
1729615654009.4119,-0.08788605034351349,0.1731104701757431,0.010651743970811367,-0.08788605034351349,0.1731104701757431,0.010651743970811367
1729615654104.66,-0.254972904920578,-9.581096649169922,0.5589790344238281,-0.254972904920578,-9.581096649169922,0.5589790344238281
1729615654109.1482,-0.0830916315317154,0.14860780537128448,0.05166523531079292,-0.0830916315317154,0.14860780537128448,0.05166523531079292
1729615654243.0166,-0.35303938388824463,-9.83607006072998,0.32361945509910583,-0.35303938388824463,-9.83607006072998,0.32361945509910583
1729615654243.7913,0.011184069328010082,0.13902071118354797,-0.033023372292518616,0.011184069328010082,0.13902071118354797,-0.033023372292518616
1729615654341.8423,-0.09806649386882782,-9.81645679473877,0.509945809841156,-0.09806649386882782,-9.81645679473877,0.509945809841156
1729615654343.5254,-0.010119418613612652,0.027696629986166954,-0.06711314618587494,-0.010119418613612652,0.027696629986166954,-0.06711314618587494
1729615654470.3154,0.156906396150589,-9.973362922668457,0.7649186849594116,0.156906396150589,-9.973362922668457,0.7649186849594116
1729615654478.166,0.0005323254154063761,0.006391395349055529,0.11345338076353073,0.0005323254154063761,0.006391395349055529,0.11345338076353073
1729615654579.0208,-0.27458620071411133,-9.384963989257812,0.8727918267250061,-0.27458620071411133,-9.384963989257812,0.8727918267250061
1729615654577.8984,-0.02183755859732628,-0.033023372292518616,0.08522267639636993,-0.02183755859732628,-0.033023372292518616,0.08522267639636993
1729615654707.4895,-0.156906396150589,-9.826263427734375,0.7747253179550171,-0.156906396150589,-9.826263427734375,0.7747253179550171
1729615654712.5361,-0.05965535342693329,0.044741515070199966,-0.028761280700564384,-0.05965535342693329,0.044741515070199966,-0.028761280700564384
1729615654806.3096,-0.254972904920578,-9.806650161743164,0.5589790344238281,-0.254972904920578,-9.806650161743164,0.5589790344238281
1729615654812.2668,0.0015969761880114675,0.07563558965921402,-0.025565581396222115,0.0015969761880114675,0.07563558965921402,-0.025565581396222115
1729615654944.6702,-0.13729310035705566,-9.875296592712402,0.6668521761894226,-0.13729310035705566,-9.875296592712402,0.6668521761894226
1729615654941.9192,-0.010651743970811367,-0.018641861155629158,-0.06924419105052948,-0.010651743970811367,-0.018641861155629158,-0.06924419105052948
1729615655043.5068,0.029419949278235435,-9.865489959716797,0.6570455431938171,0.029419949278235435,-9.865489959716797,0.6570455431938171
1729615655041.6567,-0.0021293016616255045,-0.02396860532462597,-0.04314279183745384,-0.0021293016616255045,-0.02396860532462597,-0.04314279183745384
1729615655171.9932,-0.127486452460289,-9.698776245117188,0.5295590758323669,-0.127486452460289,-9.698776245117188,0.5295590758323669
1729615655176.3015,-0.014379767701029778,0.013847441412508488,-0.03994709625840187,-0.014379767701029778,0.013847441412508488,-0.03994709625840187
1729615655270.8333,0.19613298773765564,-9.92432975769043,0.2843928337097168,0.19613298773765564,-9.92432975769043,0.2843928337097168
1729615655276.038,0.04527384042739868,0.0458061657845974,-0.05166523531079292,0.04527384042739868,0.0458061657845974,-0.05166523531079292
1729615655409.199,0.009806649759411812,-9.639936447143555,0.823758602142334,0.009806649759411812,-9.639936447143555,0.823758602142334
1729615655410.6804,-0.05965535342693329,0.061254072934389114,-0.056991979479789734,-0.05965535342693329,0.061254072934389114,-0.056991979479789734
1729615655508.022,0.18632633984088898,-9.953749656677246,0.6864655017852783,0.18632633984088898,-9.953749656677246,0.6864655017852783
1729615655510.414,0.0031956976745277643,0.06551442295312881,-0.03355569764971733,0.0031956976745277643,0.06551442295312881,-0.03355569764971733
1729615655606.8525,-0.17651969194412231,-9.375157356262207,0.6766588091850281,-0.17651969194412231,-9.375157356262207,0.6766588091850281
1729615655610.147,0.009054767899215221,0.0,0.015978489071130753,0.009054767899215221,0.0,0.015978489071130753
1729615655745.2214,0.06864655017852783,-9.610516548156738,0.8531785011291504,0.06864655017852783,-9.610516548156738,0.8531785011291504
1729615655744.7856,-0.013847441412508488,-0.023436279967427254,0.03888244554400444,-0.013847441412508488,-0.023436279967427254,0.03888244554400444
1729615655844.0579,0.05883989855647087,-9.885103225708008,0.5982056260108948,0.05883989855647087,-9.885103225708008,0.5982056260108948
1729615655844.5166,-0.03355569764971733,-0.018109535798430443,-0.024500930681824684,-0.03355569764971733,-0.018109535798430443,-0.024500930681824684
1729615655972.5518,0.23535959422588348,-9.963556289672852,0.6374322175979614,0.23535959422588348,-9.963556289672852,0.6374322175979614
1729615655979.1548,-0.015446163713932037,-0.017577210441231728,-0.003728023264557123,-0.015446163713932037,-0.017577210441231728,-0.003728023264557123
1729615656071.3843,0.09806649386882782,-9.777230262756348,0.6864655017852783,0.09806649386882782,-9.777230262756348,0.6864655017852783
1729615656078.8848,0.013315116055309772,0.0,0.0015969761880114675,0.013315116055309772,0.0,0.0015969761880114675
1729615656209.7568,0.11767979711294174,-9.610516548156738,0.5982056260108948,0.11767979711294174,-9.610516548156738,0.5982056260108948
1729615656208.5325,0.034088023006916046,0.007988371886312962,0.011184069328010082,0.034088023006916046,0.007988371886312962,0.011184069328010082
1729615656338.2366,0.14709974825382233,-9.767423629760742,0.6374322175979614,0.14709974825382233,-9.767423629760742,0.6374322175979614
1729615656343.1653,-0.020240582525730133,0.029827676713466644,0.018109535798430443,-0.020240582525730133,0.029827676713466644,0.018109535798430443
1729615656446.9487,0.14709974825382233,-9.620323181152344,0.5883989930152893,0.14709974825382233,-9.620323181152344,0.5883989930152893
1729615656442.8928,-0.0458061657845974,0.0015969761880114675,0.04314279183745384,-0.0458061657845974,0.0015969761880114675,0.04314279183745384
1729615656575.4285,0.156906396150589,-9.747809410095215,0.6080122590065002,0.156906396150589,-9.747809410095215,0.6080122590065002
1729615656577.5225,-0.020240582525730133,0.019174186512827873,-0.0010646508308127522,-0.020240582525730133,0.019174186512827873,-0.0010646508308127522
1729615656674.2544,0.18632633984088898,-9.845876693725586,0.627625584602356,0.18632633984088898,-9.845876693725586,0.627625584602356
1729615656677.2468,0.015446163713932037,0.04261046648025513,-0.0010646508308127522,0.015446163713932037,0.04261046648025513,-0.0010646508308127522
1729615656812.608,0.11767979711294174,-9.708582878112793,0.6472389101982117,0.11767979711294174,-9.708582878112793,0.6472389101982117
1729615656811.8733,0.0559273287653923,0.04900360852479935,-0.0010646508308127522,0.0559273287653923,0.04900360852479935,-0.0010646508308127522
1729615656911.4355,-0.009806649759411812,-9.286897659301758,0.9610517024993896,-0.009806649759411812,-9.286897659301758,0.9610517024993896
1729615656911.5964,-0.0015969761880114675,-0.004792673978954554,-0.026631977409124374,-0.0015969761880114675,-0.004792673978954554,-0.026631977409124374
1729615657039.9268,0.18632633984088898,-9.698776245117188,0.6374322175979614,0.18632633984088898,-9.698776245117188,0.6374322175979614
1729615657046.2327,0.026631977409124374,0.007988371886312962,-0.029827676713466644,0.026631977409124374,0.007988371886312962,-0.029827676713466644
1729615657138.7566,0.10787314921617508,-9.63012981414795,0.8531785011291504,0.10787314921617508,-9.63012981414795,0.8531785011291504
1729615657145.9602,-0.011184069328010082,-0.015446163713932037,0.010651743970811367,-0.011184069328010082,-0.015446163713932037,0.010651743970811367
1729615657277.1177,0.127486452460289,-9.826263427734375,0.5197524428367615,0.127486452460289,-9.826263427734375,0.5197524428367615
1729615657275.6055,0.0324910469353199,0.013847441412508488,0.0031956976745277643,0.0324910469353199,0.013847441412508488,0.0031956976745277643
1729615657375.944,0.13729310035705566,-10.022396087646484,0.6374322175979614,0.13729310035705566,-10.022396087646484,0.6374322175979614
1729615657380.317,-0.023436279967427254,-0.07456918805837631,0.044741515070199966,-0.023436279967427254,-0.07456918805837631,0.044741515070199966
1729615657504.414,0.019613299518823624,-9.492836952209473,0.411879301071167,0.019613299518823624,-9.492836952209473,0.411879301071167
1729615657509.9592,0.0,-0.026631977409124374,-0.0559273287653923,0.0,-0.026631977409124374,-0.0559273287653923
1729615657613.1191,0.34323275089263916,-9.73800277709961,0.6570455431938171,0.34323275089263916,-9.73800277709961,0.6570455431938171
1729615657609.682,-0.011184069328010082,-0.10599558800458908,-0.010119418613612652,-0.011184069328010082,-0.10599558800458908,-0.010119418613612652
1729615657741.588,0.3334260880947113,-9.796843528747559,0.7747253179550171,0.3334260880947113,-9.796843528747559,0.7747253179550171
1729615657744.3064,0.04953593388199806,0.035154420882463455,-0.006923720706254244,0.04953593388199806,0.035154420882463455,-0.006923720706254244
1729615657840.401,0.22555294632911682,-9.787036895751953,0.6178189516067505,0.22555294632911682,-9.787036895751953,0.6178189516067505
1729615657844.0278,0.020240582525730133,0.0015969761880114675,0.024500930681824684,0.020240582525730133,0.0015969761880114675,0.024500930681824684
1729615657978.7732,0.029419949278235435,-9.620323181152344,0.8629851937294006,0.029419949278235435,-9.620323181152344,0.8629851937294006
1729615657978.6702,-0.006923720706254244,0.0,0.017577210441231728,-0.006923720706254244,0.0,0.017577210441231728
1729615658077.613,-0.13729310035705566,-9.463417053222656,0.5295590758323669,-0.13729310035705566,-9.463417053222656,0.5295590758323669
1729615658078.4048,0.0015969761880114675,-0.0250332560390234,0.06551442295312881,0.0015969761880114675,-0.0250332560390234,0.06551442295312881
1729615658176.4521,-0.09806649386882782,-9.45361042022705,0.6570455431938171,-0.09806649386882782,-9.45361042022705,0.6570455431938171
1729615658178.1375,0.02290220931172371,-0.11025768518447876,0.09001709520816803,0.02290220931172371,-0.11025768518447876,0.09001709520816803
1729615658304.9402,0.16671304404735565,-9.983169555664062,0.8139519095420837,0.16671304404735565,-9.983169555664062,0.8139519095420837
1729615658312.7756,0.02077290788292885,-0.044741515070199966,0.02077290788292885,0.02077290788292885,-0.044741515070199966,0.02077290788292885
1729615658413.65,0.127486452460289,-9.787036895751953,0.7158854603767395,0.127486452460289,-9.787036895751953,0.7158854603767395
1729615658412.5073,-0.037283722311258316,-0.09427744895219803,0.075103260576725,-0.037283722311258316,-0.09427744895219803,0.075103260576725
1729615658542.1282,-0.24516624212265015,-9.698776245117188,0.3040061295032501,-0.24516624212265015,-9.698776245117188,0.3040061295032501
1729615658547.1428,-0.011184069328010082,-0.02822895534336567,-0.02183755859732628,-0.011184069328010082,-0.02822895534336567,-0.02183755859732628
1729615658670.6052,-0.06864655017852783,-9.747809410095215,0.7747253179550171,-0.06864655017852783,-9.747809410095215,0.7747253179550171
1729615658676.7913,0.02396860532462597,-0.0250332560390234,-0.08682139962911606,0.02396860532462597,-0.0250332560390234,-0.08682139962911606
1729615658779.3193,-0.09806649386882782,-9.787036895751953,0.6374322175979614,-0.09806649386882782,-9.787036895751953,0.6374322175979614
1729615658776.5186,0.009587093256413937,-0.011184069328010082,0.0015969761880114675,0.009587093256413937,-0.011184069328010082,0.0015969761880114675
1729615658907.8044,-0.127486452460289,-9.571290016174316,0.6570455431938171,-0.127486452460289,-9.571290016174316,0.6570455431938171
1729615658911.151,0.05326395481824875,-0.043676864355802536,-0.04687255993485451,0.05326395481824875,-0.043676864355802536,-0.04687255993485451
1729615659006.6543,-0.04903324693441391,-9.5418701171875,0.8727918267250061,-0.04903324693441391,-9.5418701171875,0.8727918267250061
1729615659010.8906,-0.0250332560390234,-0.07883128523826599,-0.006391395349055529,-0.0250332560390234,-0.07883128523826599,-0.006391395349055529
1729615659145.028,0.04903324693441391,-9.708582878112793,0.7453053593635559,0.04903324693441391,-9.708582878112793,0.7453053593635559
1729615659145.5398,-0.016510814428329468,-0.09001709520816803,0.025565581396222115,-0.016510814428329468,-0.09001709520816803,0.025565581396222115
1729615659243.8643,0.009806649759411812,-9.718389511108398,0.7943386435508728,0.009806649759411812,-9.718389511108398,0.7943386435508728
1729615659245.2778,-0.020240582525730133,-0.07883128523826599,0.036219071596860886,-0.020240582525730133,-0.07883128523826599,0.036219071596860886
1729615659372.3604,-0.11767979711294174,-9.639936447143555,0.6668521761894226,-0.11767979711294174,-9.639936447143555,0.6668521761894226
1729615659379.9243,-0.04740488529205322,-0.13262930512428284,0.009054767899215221,-0.04740488529205322,-0.13262930512428284,0.009054767899215221
1729615659471.196,0.0,-9.855683326721191,0.4805258512496948,0.0,-9.855683326721191,0.4805258512496948
1729615659479.6616,-0.004260348621755838,-0.1400853544473648,-0.023436279967427254,-0.004260348621755838,-0.1400853544473648,-0.023436279967427254
1729615659609.5657,0.13729310035705566,-9.639936447143555,0.7943386435508728,0.13729310035705566,-9.639936447143555,0.7943386435508728
1729615659609.3179,-0.02716430276632309,-0.11824779957532883,0.031958721578121185,-0.02716430276632309,-0.11824779957532883,0.031958721578121185
1729615659708.4065,0.10787314921617508,-9.75761604309082,0.5197524428367615,0.10787314921617508,-9.75761604309082,0.5197524428367615
1729615659709.0532,-0.034088023006916046,-0.1123887300491333,0.014913838356733322,-0.034088023006916046,-0.1123887300491333,0.014913838356733322
1729615659846.7834,-0.04903324693441391,-9.571290016174316,0.823758602142334,-0.04903324693441391,-9.571290016174316,0.823758602142334
1729615659843.6938,-0.024500930681824684,-0.10865896195173264,-0.03568674623966217,-0.024500930681824684,-0.10865896195173264,-0.03568674623966217
1729615659945.6235,0.22555294632911682,-10.071429252624512,0.4609125256538391,0.22555294632911682,-10.071429252624512,0.4609125256538391
1729615659943.4292,-0.004260348621755838,-0.09214814752340317,-0.014913838356733322,-0.004260348621755838,-0.09214814752340317,-0.014913838356733322
1729615660074.1091,0.03922659903764725,-9.659549713134766,0.7354987263679504,0.03922659903764725,-9.659549713134766,0.7354987263679504
1729615660078.0776,-0.04527384042739868,-0.16032594442367554,0.075103260576725,-0.04527384042739868,-0.16032594442367554,0.075103260576725
1729615660172.9463,0.029419949278235435,-9.855683326721191,0.6178189516067505,0.029419949278235435,-9.855683326721191,0.6178189516067505
1729615660177.8154,-0.027696629986166954,-0.17683850228786469,0.043676864355802536,-0.027696629986166954,-0.17683850228786469,0.043676864355802536
1729615660311.3167,-0.09806649386882782,-9.561483383178711,0.7845319509506226,-0.09806649386882782,-9.561483383178711,0.7845319509506226
1729615660312.4612,0.017043139785528183,-0.06338512152433395,-0.020240582525730133,0.017043139785528183,-0.06338512152433395,-0.020240582525730133
1729615660410.1487,0.0,-9.787036895751953,0.6766588091850281,0.0,-9.787036895751953,0.6766588091850281
1729615660412.197,-0.013315116055309772,-0.11824779957532883,-0.03462209552526474,-0.013315116055309772,-0.11824779957532883,-0.03462209552526474
1729615660538.6238,0.0,-9.718389511108398,0.6472389101982117,0.0,-9.718389511108398,0.6472389101982117
1729615660546.8403,-0.0026616270188242197,-0.1448797732591629,0.039414770901203156,-0.0026616270188242197,-0.1448797732591629,0.039414770901203156
1729615660637.4531,0.0784531980752945,-9.659549713134766,0.6766588091850281,0.0784531980752945,-9.659549713134766,0.6766588091850281
1729615660646.5752,-0.010119418613612652,-0.11398570239543915,0.0015969761880114675,-0.010119418613612652,-0.11398570239543915,0.0015969761880114675
1729615660775.8193,-0.0784531980752945,-9.64974308013916,0.7060787677764893,-0.0784531980752945,-9.64974308013916,0.7060787677764893
1729615660776.2292,-0.012782790698111057,-0.14860780537128448,-0.010119418613612652,-0.012782790698111057,-0.14860780537128448,-0.010119418613612652
1729615660874.6538,0.0,-9.796843528747559,0.7354987263679504,0.0,-9.796843528747559,0.7354987263679504
1729615660875.9614,-0.026631977409124374,-0.14061768352985382,0.013315116055309772,-0.026631977409124374,-0.14061768352985382,0.013315116055309772
1729615661013.0178,-0.04903324693441391,-9.63012981414795,0.5197524428367615,-0.04903324693441391,-9.63012981414795,0.5197524428367615
1729615661010.605,-0.04740488529205322,-0.2237110584974289,0.04953593388199806,-0.04740488529205322,-0.2237110584974289,0.04953593388199806
1729615661111.854,-0.14709974825382233,-9.610516548156738,0.6668521761894226,-0.14709974825382233,-9.610516548156738,0.6668521761894226
1729615661110.3416,0.018641861155629158,-0.12889954447746277,-0.0021293016616255045,0.018641861155629158,-0.12889954447746277,-0.0021293016616255045
1729615661240.3425,-0.06864655017852783,-9.747809410095215,0.5687856674194336,-0.06864655017852783,-9.747809410095215,0.5687856674194336
1729615661244.9836,0.038350120186805725,-0.14701081812381744,-0.022369883954524994,0.038350120186805725,-0.14701081812381744,-0.022369883954524994
1729615661339.1765,0.019613299518823624,-9.787036895751953,0.6668521761894226,0.019613299518823624,-9.787036895751953,0.6668521761894226
1729615661344.7183,-0.012782790698111057,-0.20133943855762482,-0.009054767899215221,-0.012782790698111057,-0.20133943855762482,-0.009054767899215221
1729615661477.5435,0.029419949278235435,-9.796843528747559,0.509945809841156,0.029419949278235435,-9.796843528747559,0.509945809841156
1729615661479.3586,-0.010651743970811367,-0.19974245131015778,0.04793721064925194,-0.010651743970811367,-0.19974245131015778,0.04793721064925194
1729615661606.016,0.0784531980752945,-9.708582878112793,0.8531785011291504,0.0784531980752945,-9.708582878112793,0.8531785011291504
1729615661609.0098,-0.036219071596860886,-0.1965467631816864,0.018641861155629158,-0.036219071596860886,-0.1965467631816864,0.018641861155629158
1729615661704.844,-0.08825984597206116,-9.590903282165527,0.5687856674194336,-0.08825984597206116,-9.590903282165527,0.5687856674194336
1729615661713.728,0.023436279967427254,-0.13795430958271027,-0.0031956976745277643,0.023436279967427254,-0.13795430958271027,-0.0031956976745277643
1729615661843.2056,0.14709974825382233,-9.826263427734375,0.7453053593635559,0.14709974825382233,-9.826263427734375,0.7453053593635559
1729615661843.3774,-0.0649820938706398,-0.2625952363014221,0.026631977409124374,-0.0649820938706398,-0.2625952363014221,0.026631977409124374
1729615661942.0676,0.0784531980752945,-9.806650161743164,0.5491724014282227,0.0784531980752945,-9.806650161743164,0.5491724014282227
1729615661943.1462,-0.08522267639636993,-0.25407281517982483,0.052731629461050034,-0.08522267639636993,-0.25407281517982483,0.052731629461050034
1729615662080.711,0.08825984597206116,-9.767423629760742,0.6080122590065002,0.08825984597206116,-9.767423629760742,0.6080122590065002
1729615662078.0518,-0.07030884176492691,-0.23010244965553284,0.04634023457765579,-0.07030884176492691,-0.23010244965553284,0.04634023457765579
1729615662179.7522,0.13729310035705566,-9.94394302368164,0.42168593406677246,0.13729310035705566,-9.94394302368164,0.42168593406677246
1729615662177.9895,-0.015978489071130753,-0.20400279760360718,0.005324999336153269,-0.015978489071130753,-0.20400279760360718,0.005324999336153269
1729615662308.5151,0.0784531980752945,-9.73800277709961,0.6178189516067505,0.0784531980752945,-9.73800277709961,0.6178189516067505
1729615662312.9148,0.034088023006916046,-0.19761140644550323,0.04527384042739868,0.034088023006916046,-0.19761140644550323,0.04527384042739868
1729615662447.1968,-0.127486452460289,-9.522256851196289,0.6864655017852783,-0.127486452460289,-9.522256851196289,0.6864655017852783
1729615662447.853,0.039414770901203156,-0.1912200152873993,0.02929535135626793,0.039414770901203156,-0.1912200152873993,0.02929535135626793
1729615662546.262,0.13729310035705566,-9.698776245117188,0.6472389101982117,0.13729310035705566,-9.698776245117188,0.6472389101982117
1729615662547.815,0.0026616270188242197,-0.2093295454978943,0.018109535798430443,0.0026616270188242197,-0.2093295454978943,0.018109535798430443
1729615662675.0557,0.0784531980752945,-9.708582878112793,0.8531785011291504,0.0784531980752945,-9.708582878112793,0.8531785011291504
1729615662677.7751,0.021305233240127563,-0.13422629237174988,-0.0026616270188242197,0.021305233240127563,-0.13422629237174988,-0.0026616270188242197
1729615662774.1367,0.21574629843235016,-9.845876693725586,0.8433718681335449,0.21574629843235016,-9.845876693725586,0.8433718681335449
1729615662777.7522,-0.04687255993485451,-0.17896954715251923,0.08788605034351349,-0.04687255993485451,-0.17896954715251923,0.08788605034351349
1729615662912.8608,-0.04903324693441391,-9.855683326721191,0.37265267968177795,-0.04903324693441391,-9.855683326721191,0.37265267968177795
1729615662912.7305,-0.02290220931172371,-0.08255930989980698,-0.027696629986166954,-0.02290220931172371,-0.08255930989980698,-0.027696629986166954
1729615663011.7668,-0.009806649759411812,-9.83607006072998,0.5393657088279724,-0.009806649759411812,-9.83607006072998,0.5393657088279724
1729615663012.53,-0.05060058459639549,-0.17950187623500824,0.036219071596860886,-0.05060058459639549,-0.17950187623500824,0.036219071596860886
1729615663140.313,0.127486452460289,-9.679162979125977,0.7354987263679504,0.127486452460289,-9.679162979125977,0.7354987263679504
1729615663147.2236,-0.012782790698111057,-0.1257038414478302,0.04207814112305641,-0.012782790698111057,-0.1257038414478302,0.04207814112305641
1729615663278.7478,-0.13729310035705566,-9.620323181152344,0.40207263827323914,-0.13729310035705566,-9.620323181152344,0.40207263827323914
1729615663281.9177,-0.024500930681824684,-0.1443474441766739,0.015978489071130753,-0.024500930681824684,-0.1443474441766739,0.015978489071130753
1729615663377.6191,-0.009806649759411812,-9.777230262756348,0.4314925968647003,-0.009806649759411812,-9.777230262756348,0.4314925968647003
1729615663381.691,-0.004792673978954554,-0.10333221405744553,-0.011718139983713627,-0.004792673978954554,-0.10333221405744553,-0.011718139983713627
1729615663516.0474,-0.127486452460289,-9.571290016174316,0.5001391172409058,-0.127486452460289,-9.571290016174316,0.5001391172409058
1729615663511.3965,0.04953593388199806,0.03142465278506279,-0.05113290995359421,0.04953593388199806,0.03142465278506279,-0.05113290995359421
1729615663614.9167,0.16671304404735565,-9.826263427734375,0.725692093372345,0.16671304404735565,-9.826263427734375,0.725692093372345
1729615663616.1587,0.004792673978954554,-0.06658081710338593,-0.009054767899215221,0.004792673978954554,-0.06658081710338593,-0.009054767899215221
1729615663743.4456,0.0,-9.855683326721191,0.5295590758323669,0.0,-9.855683326721191,0.5295590758323669
1729615663745.8645,0.010119418613612652,-0.007456046529114246,0.013315116055309772,0.010119418613612652,-0.007456046529114246,0.013315116055309772
1729615663842.3171,-0.03922659903764725,-9.73800277709961,0.6766588091850281,-0.03922659903764725,-9.73800277709961,0.6766588091850281
1729615663845.6382,0.03994709625840187,-0.04207814112305641,-0.010119418613612652,0.03994709625840187,-0.04207814112305641,-0.010119418613612652
1729615663980.739,-0.09806649386882782,-9.659549713134766,0.7943386435508728,-0.09806649386882782,-9.659549713134766,0.7943386435508728
1729615663980.331,-0.016510814428329468,-0.06444977223873138,-0.017577210441231728,-0.016510814428329468,-0.06444977223873138,-0.017577210441231728
1729615664109.2678,-0.16671304404735565,-9.679162979125977,0.6080122590065002,-0.16671304404735565,-9.679162979125977,0.6080122590065002
1729615664115.0215,-0.006923720706254244,-0.08948477357625961,0.009587093256413937,-0.006923720706254244,-0.08948477357625961,0.009587093256413937
1729615664208.1345,-0.05883989855647087,-9.796843528747559,0.5197524428367615,-0.05883989855647087,-9.796843528747559,0.5197524428367615
1729615664214.791,-0.010651743970811367,-0.08522267639636993,0.013847441412508488,-0.010651743970811367,-0.08522267639636993,0.013847441412508488
1729615664346.5518,-0.03922659903764725,-9.679162979125977,0.6668521761894226,-0.03922659903764725,-9.679162979125977,0.6668521761894226
1729615664349.4814,-0.018641861155629158,-0.10279989242553711,-0.04207814112305641,-0.018641861155629158,-0.10279989242553711,-0.04207814112305641
1729615664445.4275,0.0,-9.512450218200684,0.8825984597206116,0.0,-9.512450218200684,0.8825984597206116
1729615664449.2532,0.0010646508308127522,-0.07243988662958145,0.02290220931172371,0.0010646508308127522,-0.07243988662958145,0.02290220931172371
1729615664573.9692,-0.47071918845176697,-9.45361042022705,0.5687856674194336,-0.47071918845176697,-9.45361042022705,0.5687856674194336
1729615664578.955,-0.0250332560390234,-0.06391744315624237,0.056991979479789734,-0.0250332560390234,-0.06391744315624237,0.056991979479789734
1729615664682.7305,-0.17651969194412231,-10.0518159866333,0.11767979711294174,-0.17651969194412231,-10.0518159866333,0.11767979711294174
1729615664678.7249,-0.02396860532462597,-0.08149465918540955,-0.05219930410385132,-0.02396860532462597,-0.08149465918540955,-0.05219930410385132
1729615664811.2715,-0.3040061295032501,-9.708582878112793,0.3824593424797058,-0.3040061295032501,-9.708582878112793,0.3824593424797058
1729615664813.4163,-0.0005323254154063761,-0.16725140810012817,0.007456046529114246,-0.0005323254154063761,-0.16725140810012817,0.007456046529114246
1729615664949.7012,0.0,-9.894909858703613,0.5197524428367615,0.0,-9.894909858703613,0.5197524428367615
1729615664948.1055,-0.015978489071130753,-0.11132233589887619,-0.005859069991856813,-0.015978489071130753,-0.11132233589887619,-0.005859069991856813
1729615665048.5815,0.0784531980752945,-9.914523124694824,0.7060787677764893,0.0784531980752945,-9.914523124694824,0.7060787677764893
1729615665047.8738,-0.017043139785528183,-0.1310305893421173,0.03142465278506279,-0.017043139785528183,-0.1310305893421173,0.03142465278506279
1729615665177.1191,-0.06864655017852783,-9.747809410095215,0.823758602142334,-0.06864655017852783,-9.747809410095215,0.823758602142334
1729615665182.5596,-0.014379767701029778,-0.036219071596860886,0.015978489071130753,-0.014379767701029778,-0.036219071596860886,0.015978489071130753
1729615665275.9922,-0.2059396505355835,-9.688969612121582,0.5785923600196838,-0.2059396505355835,-9.688969612121582,0.5785923600196838
1729615665282.3267,0.0015969761880114675,-0.06338512152433395,0.021305233240127563,0.0015969761880114675,-0.06338512152433395,0.021305233240127563
1729615665414.4187,-0.17651969194412231,-9.767423629760742,0.5589790344238281,-0.17651969194412231,-9.767423629760742,0.5589790344238281
1729615665417.0125,0.015446163713932037,-0.0932127982378006,-0.0015969761880114675,0.015446163713932037,-0.0932127982378006,-0.0015969761880114675
1729615665542.9639,-0.11767979711294174,-9.796843528747559,0.47071918845176697,-0.11767979711294174,-9.796843528747559,0.47071918845176697
1729615665546.7095,-0.053796280175447464,-0.15233582258224487,0.04740488529205322,-0.053796280175447464,-0.15233582258224487,0.04740488529205322
1729615665641.843,-0.09806649386882782,-9.708582878112793,0.5785923600196838,-0.09806649386882782,-9.708582878112793,0.5785923600196838
1729615665646.4766,0.008520697243511677,-0.06924419105052948,-0.007456046529114246,0.008520697243511677,-0.06924419105052948,-0.007456046529114246
1729615665780.272,0.04903324693441391,-10.012589454650879,0.5295590758323669,0.04903324693441391,-10.012589454650879,0.5295590758323669
1729615665781.162,-0.0015969761880114675,-0.08255930989980698,0.009587093256413937,-0.0015969761880114675,-0.08255930989980698,0.009587093256413937
1729615665879.1462,-0.19613298773765564,-9.63012981414795,0.5687856674194336,-0.19613298773765564,-9.63012981414795,0.5687856674194336
1729615665880.929,0.026631977409124374,-0.08788605034351349,0.010119418613612652,0.026631977409124374,-0.08788605034351349,0.010119418613612652
1729615666007.6917,-0.2059396505355835,-9.708582878112793,0.6766588091850281,-0.2059396505355835,-9.708582878112793,0.6766588091850281
1729615666015.6191,-0.020240582525730133,-0.12410686910152435,0.04953593388199806,-0.020240582525730133,-0.12410686910152435,0.04953593388199806
1729615666146.125,-0.18632633984088898,-9.600709915161133,0.6864655017852783,-0.18632633984088898,-9.600709915161133,0.6864655017852783
1729615666150.313,-0.013847441412508488,-0.13209524750709534,0.03781779482960701,-0.013847441412508488,-0.13209524750709534,0.03781779482960701
1729615666245.0083,-0.17651969194412231,-9.600709915161133,0.9120184183120728,-0.17651969194412231,-9.600709915161133,0.9120184183120728
1729615666250.086,-0.0015969761880114675,-0.04900360852479935,-0.02609965205192566,-0.0015969761880114675,-0.04900360852479935,-0.02609965205192566
1729615666383.44,-0.2059396505355835,-9.75761604309082,0.4609125256538391,-0.2059396505355835,-9.75761604309082,0.4609125256538391
1729615666379.792,0.022369883954524994,-0.07883128523826599,-0.014379767701029778,0.022369883954524994,-0.07883128523826599,-0.014379767701029778
1729615666482.3193,-0.10787314921617508,-9.718389511108398,0.7354987263679504,-0.10787314921617508,-9.718389511108398,0.7354987263679504
1729615666479.5654,0.04793721064925194,-0.07456918805837631,-0.020240582525730133,0.04793721064925194,-0.07456918805837631,-0.020240582525730133
1729615666610.8618,-0.127486452460289,-9.698776245117188,0.5785923600196838,-0.127486452460289,-9.698776245117188,0.5785923600196838
1729615666614.2595,-0.012782790698111057,-0.10812663286924362,0.009054767899215221,-0.012782790698111057,-0.10812663286924362,0.009054767899215221
1729615666749.293,-0.127486452460289,-9.73800277709961,0.6864655017852783,-0.127486452460289,-9.73800277709961,0.6864655017852783
1729615666748.954,0.021305233240127563,-0.08788605034351349,-0.004260348621755838,0.021305233240127563,-0.08788605034351349,-0.004260348621755838
1729615666848.1726,-0.156906396150589,-9.659549713134766,0.627625584602356,-0.156906396150589,-9.659549713134766,0.627625584602356
1729615666848.7275,0.007456046529114246,-0.12250814586877823,0.009587093256413937,0.007456046529114246,-0.12250814586877823,0.009587093256413937
1729615666976.7168,-0.19613298773765564,-9.571290016174316,0.725692093372345,-0.19613298773765564,-9.571290016174316,0.725692093372345
1729615666983.4202,0.0021293016616255045,-0.0980072170495987,-0.017043139785528183,0.0021293016616255045,-0.0980072170495987,-0.017043139785528183
1729615667115.1492,-0.127486452460289,-9.83607006072998,0.45110589265823364,-0.127486452460289,-9.83607006072998,0.45110589265823364
1729615667113.1213,0.0021293016616255045,-0.10386628657579422,-0.0015969761880114675,0.0021293016616255045,-0.10386628657579422,-0.0015969761880114675
1729615667214.0237,-0.11767979711294174,-9.73800277709961,0.6668521761894226,-0.11767979711294174,-9.73800277709961,0.6668521761894226
1729615667217.8794,-0.03462209552526474,-0.16938070952892303,0.08575500547885895,-0.03462209552526474,-0.16938070952892303,0.08575500547885895
1729615667342.5637,-0.08825984597206116,-9.63012981414795,0.6570455431938171,-0.08825984597206116,-9.63012981414795,0.6570455431938171
1729615667347.5793,0.017043139785528183,-0.07670024037361145,-0.009054767899215221,0.017043139785528183,-0.07670024037361145,-0.009054767899215221
1729615667480.99,-0.04903324693441391,-9.73800277709961,0.7649186849594116,-0.04903324693441391,-9.73800277709961,0.7649186849594116
1729615667482.2678,-0.04207814112305641,-0.12730257213115692,0.02929535135626793,-0.04207814112305641,-0.12730257213115692,0.02929535135626793
1729615667579.8633,-0.10787314921617508,-9.688969612121582,0.5197524428367615,-0.10787314921617508,-9.688969612121582,0.5197524428367615
1729615667582.037,-0.013315116055309772,-0.10066884011030197,-0.004792673978954554,-0.013315116055309772,-0.10066884011030197,-0.004792673978954554
1729615667718.2834,-0.0784531980752945,-9.787036895751953,0.7354987263679504,-0.0784531980752945,-9.787036895751953,0.7354987263679504
1729615667716.7266,0.012250465340912342,-0.07989593595266342,0.007988371886312962,0.012250465340912342,-0.07989593595266342,0.007988371886312962
1729615667817.1616,-0.06864655017852783,-9.81645679473877,0.5491724014282227,-0.06864655017852783,-9.81645679473877,0.5491724014282227
1729615667816.4958,-0.02609965205192566,-0.07829895615577698,0.018109535798430443,-0.02609965205192566,-0.07829895615577698,0.018109535798430443
1729615667945.7085,-0.23535959422588348,-9.787036895751953,0.6472389101982117,-0.23535959422588348,-9.787036895751953,0.6472389101982117
1729615667951.184,-0.02396860532462597,-0.08202698081731796,0.03142465278506279,-0.02396860532462597,-0.08202698081731796,0.03142465278506279
1729615668084.1414,-0.23535959422588348,-9.610516548156738,0.627625584602356,-0.23535959422588348,-9.610516548156738,0.627625584602356
1729615668080.8848,-0.02822895534336567,-0.09747314453125,0.004792673978954554,-0.02822895534336567,-0.09747314453125,0.004792673978954554
1729615668183.0166,-0.06864655017852783,-9.728196144104004,0.7943386435508728,-0.06864655017852783,-9.728196144104004,0.7943386435508728
1729615668180.6536,0.022369883954524994,-0.11718140542507172,0.0005323254154063761,0.022369883954524994,-0.11718140542507172,0.0005323254154063761
1729615668311.56,-0.11767979711294174,-9.669356346130371,0.7060787677764893,-0.11767979711294174,-9.669356346130371,0.7060787677764893
1729615668315.3418,-0.017577210441231728,-0.075103260576725,-0.015978489071130753,-0.017577210441231728,-0.075103260576725,-0.015978489071130753
1729615668449.9927,-0.14709974825382233,-9.796843528747559,0.7060787677764893,-0.14709974825382233,-9.796843528747559,0.7060787677764893
1729615668450.0295,-0.053796280175447464,-0.1022675633430481,0.033023372292518616,-0.053796280175447464,-0.1022675633430481,0.033023372292518616
1729615668548.8745,-0.29419949650764465,-9.571290016174316,0.6962721347808838,-0.29419949650764465,-9.571290016174316,0.6962721347808838
1729615668549.7993,-0.02822895534336567,-0.16512036323547363,0.015978489071130753,-0.02822895534336567,-0.16512036323547363,0.015978489071130753
1729615668677.4167,-0.13729310035705566,-9.688969612121582,0.6178189516067505,-0.13729310035705566,-9.688969612121582,0.6178189516067505
1729615668684.487,-0.015978489071130753,-0.14594443142414093,0.023436279967427254,-0.015978489071130753,-0.14594443142414093,0.023436279967427254
1729615668815.8489,-0.09806649386882782,-9.728196144104004,0.7845319509506226,-0.09806649386882782,-9.728196144104004,0.7845319509506226
1729615668814.187,0.023436279967427254,-0.09694082289934158,0.0415458157658577,0.023436279967427254,-0.09694082289934158,0.0415458157658577
1729615668914.7234,-0.34323275089263916,-9.571290016174316,0.6374322175979614,-0.34323275089263916,-9.571290016174316,0.6374322175979614
1729615668913.9556,0.022369883954524994,-0.09374511986970901,-0.0015969761880114675,0.022369883954524994,-0.09374511986970901,-0.0015969761880114675
1729615669043.4326,-0.29419949650764465,-9.64974308013916,0.627625584602356,-0.29419949650764465,-9.64974308013916,0.627625584602356
1729615669048.8384,0.08255930989980698,-0.044741515070199966,-0.029827676713466644,0.08255930989980698,-0.044741515070199966,-0.029827676713466644
1729615669182.4646,-0.2843928337097168,-9.75761604309082,0.4609125256538391,-0.2843928337097168,-9.75761604309082,0.4609125256538391
1729615669184.119,0.03994709625840187,-0.08575500547885895,0.003728023264557123,0.03994709625840187,-0.08575500547885895,0.003728023264557123
1729615669281.783,-0.19613298773765564,-9.698776245117188,0.8433718681335449,-0.19613298773765564,-9.698776245117188,0.8433718681335449
1729615669284.3372,0.02077290788292885,-0.10919128358364105,0.005324999336153269,0.02077290788292885,-0.10919128358364105,0.005324999336153269
1729615669420.8403,-0.254972904920578,-9.581096649169922,0.6570455431938171,-0.254972904920578,-9.581096649169922,0.6570455431938171
1729615669419.6438,0.015978489071130753,-0.031958721578121185,-0.006391395349055529,0.015978489071130753,-0.031958721578121185,-0.006391395349055529
1729615669520.17,-0.2059396505355835,-9.728196144104004,0.6766588091850281,-0.2059396505355835,-9.728196144104004,0.6766588091850281
1729615669519.8816,-0.037283722311258316,-0.09054942429065704,0.022369883954524994,-0.037283722311258316,-0.09054942429065704,0.022369883954524994
1729615669649.3196,-0.13729310035705566,-9.92432975769043,0.5785923600196838,-0.13729310035705566,-9.92432975769043,0.5785923600196838
1729615669655.2144,-0.053796280175447464,-0.08788605034351349,0.039414770901203156,-0.053796280175447464,-0.08788605034351349,0.039414770901203156
1729615669788.4229,-0.26477953791618347,-9.767423629760742,0.5295590758323669,-0.26477953791618347,-9.767423629760742,0.5295590758323669
1729615669785.549,0.08042825758457184,0.03462209552526474,-0.036219071596860886,0.08042825758457184,0.03462209552526474,-0.036219071596860886
1729615669887.7947,-0.254972904920578,-9.639936447143555,0.6962721347808838,-0.254972904920578,-9.639936447143555,0.6962721347808838
1729615669885.817,0.0559273287653923,0.05432860553264618,-0.053796280175447464,0.0559273287653923,0.05432860553264618,-0.053796280175447464
1729615670016.9355,-0.17651969194412231,-9.894909858703613,0.5589790344238281,-0.17651969194412231,-9.894909858703613,0.5589790344238281
1729615670021.1125,-0.05060058459639549,-0.061254072934389114,-0.0015969761880114675,-0.05060058459639549,-0.061254072934389114,-0.0015969761880114675
1729615670155.3137,-0.16671304404735565,-9.64974308013916,0.8531785011291504,-0.16671304404735565,-9.64974308013916,0.8531785011291504
1729615670155.7463,0.0031956976745277643,0.044741515070199966,0.0015969761880114675,0.0031956976745277643,0.044741515070199966,0.0015969761880114675
1729615670254.1497,-0.19613298773765564,-9.81645679473877,0.6472389101982117,-0.19613298773765564,-9.81645679473877,0.6472389101982117
1729615670255.4749,0.009054767899215221,0.03462209552526474,-0.020240582525730133,0.009054767899215221,0.03462209552526474,-0.020240582525730133
1729615670382.6401,-0.254972904920578,-9.610516548156738,0.7649186849594116,-0.254972904920578,-9.610516548156738,0.7649186849594116
1729615670390.1055,0.020240582525730133,-0.0250332560390234,0.024500930681824684,0.020240582525730133,-0.0250332560390234,0.024500930681824684
1729615670481.4739,-0.18632633984088898,-9.679162979125977,0.7158854603767395,-0.18632633984088898,-9.679162979125977,0.7158854603767395
1729615670489.8313,-0.0415458157658577,-0.013847441412508488,0.019174186512827873,-0.0415458157658577,-0.013847441412508488,0.019174186512827873
1729615670619.844,-0.21574629843235016,-9.620323181152344,0.823758602142334,-0.21574629843235016,-9.620323181152344,0.823758602142334
1729615670619.4722,-0.02396860532462597,-0.03142465278506279,0.004260348621755838,-0.02396860532462597,-0.03142465278506279,0.004260348621755838
1729615670748.3296,-0.11767979711294174,-9.845876693725586,0.7158854603767395,-0.11767979711294174,-9.845876693725586,0.7158854603767395
1729615670754.0984,-0.006391395349055529,-0.03036000207066536,0.0324910469353199,-0.006391395349055529,-0.03036000207066536,0.0324910469353199
1729615670857.0527,-0.23535959422588348,-9.5418701171875,0.823758602142334,-0.23535959422588348,-9.5418701171875,0.823758602142334
1729615670853.8196,0.04687255993485451,0.02183755859732628,-0.010651743970811367,0.04687255993485451,0.02183755859732628,-0.010651743970811367
1729615670985.5342,-0.14709974825382233,-9.75761604309082,0.6766588091850281,-0.14709974825382233,-9.75761604309082,0.6766588091850281
1729615670988.4424,-0.003728023264557123,0.034088023006916046,-0.02822895534336567,-0.003728023264557123,0.034088023006916046,-0.02822895534336567
1729615671114.0264,-0.13729310035705566,-9.659549713134766,0.7943386435508728,-0.13729310035705566,-9.659549713134766,0.7943386435508728
1729615671123.0781,-0.004260348621755838,-0.02290220931172371,0.03355569764971733,-0.004260348621755838,-0.02290220931172371,0.03355569764971733
1729615671222.7495,-0.27458620071411133,-9.64974308013916,0.725692093372345,-0.27458620071411133,-9.64974308013916,0.725692093372345
1729615671222.8083,-0.005859069991856813,0.008520697243511677,-0.0010646508308127522,-0.005859069991856813,0.008520697243511677,-0.0010646508308127522
1729615671351.2427,-0.19613298773765564,-9.669356346130371,0.8041452765464783,-0.19613298773765564,-9.669356346130371,0.8041452765464783
1729615671357.4417,-0.05060058459639549,-0.029827676713466644,0.0005323254154063761,-0.05060058459639549,-0.029827676713466644,0.0005323254154063761
1729615671489.6143,-0.2059396505355835,-9.83607006072998,0.6178189516067505,-0.2059396505355835,-9.83607006072998,0.6178189516067505
1729615671487.0874,0.018641861155629158,-0.014913838356733322,-0.011718139983713627,0.018641861155629158,-0.014913838356733322,-0.011718139983713627
1729615671588.4495,-0.05883989855647087,-9.620323181152344,0.8433718681335449,-0.05883989855647087,-9.620323181152344,0.8433718681335449
1729615671586.8132,0.012250465340912342,-0.011184069328010082,0.024500930681824684,0.012250465340912342,-0.011184069328010082,0.024500930681824684
1729615671716.9287,-0.10787314921617508,-9.688969612121582,0.8335652351379395,-0.10787314921617508,-9.688969612121582,0.8335652351379395
1729615671721.4424,0.003728023264557123,0.01970651187002659,-0.03888244554400444,0.003728023264557123,0.01970651187002659,-0.03888244554400444
1729615671815.7598,-0.13729310035705566,-9.708582878112793,0.7649186849594116,-0.13729310035705566,-9.708582878112793,0.7649186849594116
1729615671821.1658,-0.026631977409124374,0.0031956976745277643,0.02396860532462597,-0.026631977409124374,0.0031956976745277643,0.02396860532462597
1729615671954.1187,-0.254972904920578,-9.639936447143555,0.627625584602356,-0.254972904920578,-9.639936447143555,0.627625584602356
1729615671955.7917,-0.014379767701029778,0.006391395349055529,0.0,-0.014379767701029778,0.006391395349055529,0.0
1729615672082.6006,-0.18632633984088898,-9.551676750183105,0.8335652351379395,-0.18632633984088898,-9.551676750183105,0.8335652351379395
1729615672090.4192,-0.009587093256413937,-0.026631977409124374,-0.008520697243511677,-0.009587093256413937,-0.026631977409124374,-0.008520697243511677
1729615672181.4236,-0.2843928337097168,-9.581096649169922,0.7551120519638062,-0.2843928337097168,-9.581096649169922,0.7551120519638062
1729615672190.1394,-0.05166523531079292,-0.015978489071130753,-0.0031956976745277643,-0.05166523531079292,-0.015978489071130753,-0.0031956976745277643
1729615672319.7805,-0.06864655017852783,-9.796843528747559,0.7158854603767395,-0.06864655017852783,-9.796843528747559,0.7158854603767395
1729615672319.7737,-0.01970651187002659,-0.025565581396222115,-0.005859069991856813,-0.01970651187002659,-0.025565581396222115,-0.005859069991856813
1729615672448.2542,-0.40207263827323914,-9.532063484191895,0.5982056260108948,-0.40207263827323914,-9.532063484191895,0.5982056260108948
1729615672454.3904,-0.031958721578121185,-0.09427744895219803,0.026631977409124374,-0.031958721578121185,-0.09427744895219803,0.026631977409124374
1729615672556.9653,-0.29419949650764465,-9.796843528747559,0.37265267968177795,-0.29419949650764465,-9.796843528747559,0.37265267968177795
1729615672554.106,-0.028761280700564384,-0.0830916315317154,0.0010646508308127522,-0.028761280700564384,-0.0830916315317154,0.0010646508308127522
1729615672685.4368,-0.34323275089263916,-9.698776245117188,0.5589790344238281,-0.34323275089263916,-9.698776245117188,0.5589790344238281
1729615672688.7197,-0.025565581396222115,-0.15127117931842804,0.03036000207066536,-0.025565581396222115,-0.15127117931842804,0.03036000207066536
1729615672823.784,-0.23535959422588348,-10.022396087646484,0.3922659754753113,-0.23535959422588348,-10.022396087646484,0.3922659754753113
1729615672823.33,0.018109535798430443,-0.16192466020584106,0.0559273287653923,0.018109535798430443,-0.16192466020584106,0.0559273287653923
1729615672922.6104,-0.21574629843235016,-10.081235885620117,0.509945809841156,-0.21574629843235016,-10.081235885620117,0.509945809841156
1729615672923.041,0.024500930681824684,-0.20720024406909943,0.06391744315624237,0.024500930681824684,-0.20720024406909943,0.06391744315624237
1729615673051.0896,-0.8531785011291504,-9.0319242477417,0.6864655017852783,-0.8531785011291504,-9.0319242477417,0.6864655017852783
1729615673052.671,0.10706198215484619,-0.3307730555534363,0.08202698081731796,0.10706198215484619,-0.3307730555534363,0.08202698081731796
1729615673149.9302,-0.5295590758323669,-9.865489959716797,0.7747253179550171,-0.5295590758323669,-9.865489959716797,0.7747253179550171
1729615673152.398,0.07776663452386856,-0.22104768455028534,-0.0559273287653923,0.07776663452386856,-0.22104768455028534,-0.0559273287653923
1729615673288.3,-0.4609125256538391,-9.63012981414795,0.8139519095420837,-0.4609125256538391,-9.63012981414795,0.8139519095420837
1729615673287.0286,0.09108174592256546,-0.24395164847373962,-0.16884838044643402,0.09108174592256546,-0.24395164847373962,-0.16884838044643402
1729615673416.7888,-0.32361945509910583,-9.581096649169922,0.5982056260108948,-0.32361945509910583,-9.581096649169922,0.5982056260108948
1729615673421.6562,-0.08042825758457184,-0.3515476882457733,0.04314279183745384,-0.08042825758457184,-0.3515476882457733,0.04314279183745384
1729615673515.6272,-0.29419949650764465,-10.002782821655273,0.7551120519638062,-0.29419949650764465,-10.002782821655273,0.7551120519638062
1729615673521.38,0.02077290788292885,-0.29189059138298035,0.14221639931201935,0.02077290788292885,-0.29189059138298035,0.14221639931201935
1729615673653.996,-1.0296982526779175,-9.198637008666992,0.5589790344238281,-1.0296982526779175,-9.198637008666992,0.5589790344238281
1729615673656.005,0.1022675633430481,-0.18908897042274475,-0.06178639829158783,0.1022675633430481,-0.18908897042274475,-0.06178639829158783
1729615673782.4775,-0.6864655017852783,-9.92432975769043,0.8629851937294006,-0.6864655017852783,-9.92432975769043,0.8629851937294006
1729615673790.6277,0.02396860532462597,-0.36166712641716003,0.32970839738845825,0.02396860532462597,-0.36166712641716003,0.32970839738845825
1729615673891.1868,-0.990471601486206,-9.806650161743164,1.3925442695617676,-0.990471601486206,-9.806650161743164,1.3925442695617676
1729615673890.3462,-0.06338512152433395,-0.2476814091205597,0.023436279967427254,-0.06338512152433395,-0.2476814091205597,0.023436279967427254
1729615674019.664,-0.8433718681335449,-9.43399715423584,0.5589790344238281,-0.8433718681335449,-9.43399715423584,0.5589790344238281
1729615674019.982,-0.10120291262865067,-0.3467532694339752,0.02077290788292885,-0.10120291262865067,-0.3467532694339752,0.02077290788292885
1729615674118.506,-0.8041452765464783,-9.914523124694824,0.7158854603767395,-0.8041452765464783,-9.914523124694824,0.7158854603767395
1729615674119.7085,-0.040481165051460266,-0.2482137382030487,0.04527384042739868,-0.040481165051460266,-0.2482137382030487,0.04527384042739868
1729615674256.8757,-1.5102241039276123,-9.120183944702148,0.8924051523208618,-1.5102241039276123,-9.120183944702148,0.8924051523208618
1729615674254.3362,0.075103260576725,-0.3845710754394531,-0.0010646508308127522,0.075103260576725,-0.3845710754394531,-0.0010646508308127522
1729615674385.3586,-0.9218250513076782,-9.679162979125977,0.5883989930152893,-0.9218250513076782,-9.679162979125977,0.5883989930152893
1729615674388.9626,-0.034088023006916046,-0.3371661901473999,-0.14807547628879547,-0.034088023006916046,-0.3371661901473999,-0.14807547628879547
1729615674484.1926,-1.2258312702178955,-9.826263427734375,0.5785923600196838,-1.2258312702178955,-9.826263427734375,0.5785923600196838
1729615674488.685,0.04740488529205322,-0.1864255964756012,-0.14754314720630646,0.04740488529205322,-0.1864255964756012,-0.14754314720630646
1729615674622.5483,-1.0983448028564453,-9.688969612121582,0.8139519095420837,-1.0983448028564453,-9.688969612121582,0.8139519095420837
1729615674623.307,-0.09694082289934158,-0.1539345383644104,-0.13262930512428284,-0.09694082289934158,-0.1539345383644104,-0.13262930512428284
1729615674721.3794,-0.5883989930152893,-9.885103225708008,0.45110589265823364,-0.5883989930152893,-9.885103225708008,0.45110589265823364
1729615674723.0264,-0.08202698081731796,-0.25993189215660095,0.02609965205192566,-0.08202698081731796,-0.25993189215660095,0.02609965205192566
1729615674849.8591,-0.5589790344238281,-9.953749656677246,0.29419949650764465,-0.5589790344238281,-9.953749656677246,0.29419949650764465
1729615674852.6594,0.007456046529114246,-0.03568674623966217,0.018109535798430443,0.007456046529114246,-0.03568674623966217,0.018109535798430443
1729615674988.217,-0.725692093372345,-8.982891082763672,0.35303938388824463,-0.725692093372345,-8.982891082763672,0.35303938388824463
1729615674987.2766,-0.005324999336153269,-0.2950862944126129,-0.35261234641075134,-0.005324999336153269,-0.2950862944126129,-0.35261234641075134
1729615675087.0544,-0.10787314921617508,-8.94366455078125,0.40207263827323914,-0.10787314921617508,-8.94366455078125,0.40207263827323914
1729615675087.0054,0.09694082289934158,-0.11132233589887619,0.2753780484199524,0.09694082289934158,-0.11132233589887619,0.2753780484199524
1729615675215.545,-2.4418559074401855,-9.875296592712402,1.019891619682312,-2.4418559074401855,-9.875296592712402,1.019891619682312
1729615675221.6409,0.040481165051460266,0.08255930989980698,0.1075943112373352,0.040481165051460266,0.08255930989980698,0.1075943112373352
1729615675314.3835,-1.6769371032714844,-9.296704292297363,1.402350902557373,-1.6769371032714844,-9.296704292297363,1.402350902557373
1729615675321.369,-0.075103260576725,0.14754314720630646,-0.09268046915531158,-0.075103260576725,0.14754314720630646,-0.09268046915531158
1729615675452.755,-1.2944778203964233,-9.845876693725586,0.029419949278235435,-1.2944778203964233,-9.845876693725586,0.029419949278235435
1729615675456.0012,0.029827676713466644,0.14807547628879547,-0.0005323254154063761,0.029827676713466644,0.14807547628879547,-0.0005323254154063761
1729615675581.2375,-0.6570455431938171,-9.845876693725586,0.6766588091850281,-0.6570455431938171,-9.845876693725586,0.6766588091850281
1729615675585.6453,0.1954803615808487,0.052731629461050034,-0.12410686910152435,0.1954803615808487,0.052731629461050034,-0.12410686910152435
1729615675689.9521,-0.5589790344238281,-9.483030319213867,0.5491724014282227,-0.5589790344238281,-9.483030319213867,0.5491724014282227
1729615675690.357,0.03036000207066536,0.07243988662958145,0.17950187623500824,0.03036000207066536,0.07243988662958145,0.17950187623500824
1729615675818.4229,-1.0787314176559448,-9.247671127319336,0.8531785011291504,-1.0787314176559448,-9.247671127319336,0.8531785011291504
1729615675819.997,0.0005323254154063761,0.029827676713466644,-0.1443474441766739,0.0005323254154063761,0.029827676713466644,-0.1443474441766739
1729615675917.2493,-0.627625584602356,-9.934136390686035,0.8531785011291504,-0.627625584602356,-9.934136390686035,0.8531785011291504
1729615675919.72,0.04420918971300125,0.13795430958271027,-0.10013651847839355,0.04420918971300125,0.13795430958271027,-0.10013651847839355
1729615676055.6091,-1.1081514358520508,-9.679162979125977,1.0002782344818115,-1.1081514358520508,-9.679162979125977,1.0002782344818115
1729615676054.345,0.0324910469353199,-0.07084116339683533,0.11132233589887619,0.0324910469353199,-0.07084116339683533,0.11132233589887619
1729615676154.4385,-1.1277647018432617,-9.865489959716797,0.32361945509910583,-1.1277647018432617,-9.865489959716797,0.32361945509910583
1729615676154.0667,-0.18003419041633606,0.08895070105791092,-0.05006825923919678,-0.18003419041633606,0.08895070105791092,-0.05006825923919678
1729615676282.9172,-0.8531785011291504,-10.238142013549805,0.019613299518823624,-0.8531785011291504,-10.238142013549805,0.019613299518823624
1729615676288.6887,0.02822895534336567,-0.037283722311258316,-0.020240582525730133,0.02822895534336567,-0.037283722311258316,-0.020240582525730133
1729615676421.277,-0.7060787677764893,-9.855683326721191,0.5883989930152893,-0.7060787677764893,-9.855683326721191,0.5883989930152893
1729615676423.3088,-0.0015969761880114675,-0.027696629986166954,-0.006391395349055529,-0.0015969761880114675,-0.027696629986166954,-0.006391395349055529
1729615676520.104,-0.7551120519638062,-9.73800277709961,0.37265267968177795,-0.7551120519638062,-9.73800277709961,0.37265267968177795
1729615676523.0251,0.053796280175447464,-0.026631977409124374,0.04740488529205322,0.053796280175447464,-0.026631977409124374,0.04740488529205322
1729615676648.581,-0.6570455431938171,-9.83607006072998,0.5197524428367615,-0.6570455431938171,-9.83607006072998,0.5197524428367615
1729615676652.6565,0.075103260576725,-0.04420918971300125,0.05912302806973457,0.075103260576725,-0.04420918971300125,0.05912302806973457
1729615676747.402,-0.6962721347808838,-9.894909858703613,0.4805258512496948,-0.6962721347808838,-9.894909858703613,0.4805258512496948
1729615676752.37,0.04846953600645065,0.017043139785528183,0.025565581396222115,0.04846953600645065,0.017043139785528183,0.025565581396222115
1729615677686.2483,-0.9022117853164673,-9.610516548156738,0.5393657088279724,-0.9022117853164673,-9.610516548156738,0.5393657088279724
1729615677689.7434,-0.07456918805837631,0.004792673978954554,-0.05006825923919678,-0.07456918805837631,0.004792673978954554,-0.05006825923919678
1729615677785.072,-0.8825984597206116,-9.728196144104004,0.37265267968177795,-0.8825984597206116,-9.728196144104004,0.37265267968177795
1729615677789.4624,-0.06551442295312881,-0.04687255993485451,-0.009587093256413937,-0.06551442295312881,-0.04687255993485451,-0.009587093256413937
1729615677923.4136,-0.7845319509506226,-9.75761604309082,0.6080122590065002,-0.7845319509506226,-9.75761604309082,0.6080122590065002
1729615677919.0952,-0.043676864355802536,-0.019174186512827873,0.019174186512827873,-0.043676864355802536,-0.019174186512827873,0.019174186512827873
1729615678022.2466,-0.7060787677764893,-9.669356346130371,0.3824593424797058,-0.7060787677764893,-9.669356346130371,0.3824593424797058
1729615678018.826,-0.05645965412259102,-0.03462209552526474,0.017577210441231728,-0.05645965412259102,-0.03462209552526474,0.017577210441231728
1729615678121.0728,-0.823758602142334,-9.747809410095215,0.5197524428367615,-0.823758602142334,-9.747809410095215,0.5197524428367615
1729615678123.5393,-0.04261046648025513,0.08255930989980698,-0.007988371886312962,-0.04261046648025513,0.08255930989980698,-0.007988371886312962
1729615678249.5488,-0.7845319509506226,-9.571290016174316,0.127486452460289,-0.7845319509506226,-9.571290016174316,0.127486452460289
1729615678253.18,-0.0559273287653923,-0.009587093256413937,-0.06711314618587494,-0.0559273287653923,-0.009587093256413937,-0.06711314618587494
1729615678348.3787,-0.6080122590065002,-9.767423629760742,0.42168593406677246,-0.6080122590065002,-9.767423629760742,0.42168593406677246
1729615678352.902,-0.02396860532462597,-0.02716430276632309,-0.018641861155629158,-0.02396860532462597,-0.02716430276632309,-0.018641861155629158
1729615678486.7327,-0.7943386435508728,-9.63012981414795,0.21574629843235016,-0.7943386435508728,-9.63012981414795,0.21574629843235016
1729615678487.5251,0.017577210441231728,-0.04420918971300125,-0.02077290788292885,0.017577210441231728,-0.04420918971300125,-0.02077290788292885
1729615678585.556,-0.34323275089263916,-9.826263427734375,0.5197524428367615,-0.34323275089263916,-9.826263427734375,0.5197524428367615
1729615678587.244,0.005324999336153269,-0.056991979479789734,-0.06658081710338593,0.005324999336153269,-0.056991979479789734,-0.06658081710338593
1729615678684.383,-0.45110589265823364,-9.73800277709961,0.313812792301178,-0.45110589265823364,-9.73800277709961,0.313812792301178
1729615678686.9624,0.020240582525730133,0.05539500340819359,-0.10120291262865067,0.020240582525730133,0.05539500340819359,-0.10120291262865067
1729615678822.7385,-0.5393657088279724,-9.669356346130371,0.32361945509910583,-0.5393657088279724,-9.669356346130371,0.32361945509910583
1729615678821.5803,0.02183755859732628,-0.01970651187002659,0.004792673978954554,0.02183755859732628,-0.01970651187002659,0.004792673978954554
1729615678921.5627,-0.5785923600196838,-9.639936447143555,0.5687856674194336,-0.5785923600196838,-9.639936447143555,0.5687856674194336
1729615678921.2961,0.018109535798430443,-0.010651743970811367,-0.04527384042739868,0.018109535798430443,-0.010651743970811367,-0.04527384042739868
1729615679050.037,-0.254972904920578,-9.81645679473877,0.29419949650764465,-0.254972904920578,-9.81645679473877,0.29419949650764465
1729615679055.915,0.004792673978954554,0.014379767701029778,-0.08575500547885895,0.004792673978954554,0.014379767701029778,-0.08575500547885895
1729615679148.8735,-0.32361945509910583,-9.845876693725586,0.35303938388824463,-0.32361945509910583,-9.845876693725586,0.35303938388824463
1729615679155.6409,0.037283722311258316,-0.08575500547885895,0.04846953600645065,0.037283722311258316,-0.08575500547885895,0.04846953600645065
1729615679287.2522,-0.29419949650764465,-9.688969612121582,0.5197524428367615,-0.29419949650764465,-9.688969612121582,0.5197524428367615
1729615679290.2664,0.0031956976745277643,-0.01970651187002659,-0.0250332560390234,0.0031956976745277643,-0.01970651187002659,-0.0250332560390234
1729615679386.0889,-0.32361945509910583,-9.64974308013916,0.40207263827323914,-0.32361945509910583,-9.64974308013916,0.40207263827323914
1729615679389.9888,0.026631977409124374,0.017577210441231728,-0.006391395349055529,0.026631977409124374,0.017577210441231728,-0.006391395349055529
1729615679514.5776,-0.27458620071411133,-9.679162979125977,0.4314925968647003,-0.27458620071411133,-9.679162979125977,0.4314925968647003
1729615679519.6257,0.009587093256413937,0.0250332560390234,-0.027696629986166954,0.009587093256413937,0.0250332560390234,-0.027696629986166954
1729615679623.303,-0.22555294632911682,-9.747809410095215,0.42168593406677246,-0.22555294632911682,-9.747809410095215,0.42168593406677246
1729615679619.3464,-0.0010646508308127522,0.03568674623966217,-0.05060058459639549,-0.0010646508308127522,0.03568674623966217,-0.05060058459639549
1729615679751.7942,-0.18632633984088898,-10.091042518615723,0.5001391172409058,-0.18632633984088898,-10.091042518615723,0.5001391172409058
1729615679753.966,0.024500930681824684,0.10386628657579422,0.05859070271253586,0.024500930681824684,0.10386628657579422,0.05859070271253586
1729615679890.1685,-0.0784531980752945,-9.659549713134766,0.6080122590065002,-0.0784531980752945,-9.659549713134766,0.6080122590065002
1729615679888.5835,0.023436279967427254,0.1491401195526123,-0.024500930681824684,0.023436279967427254,0.1491401195526123,-0.024500930681824684
1729615679988.9988,-0.24516624212265015,-9.855683326721191,0.127486452460289,-0.24516624212265015,-9.855683326721191,0.127486452460289
1729615679988.299,-0.006391395349055529,0.16032594442367554,-0.09374511986970901,-0.006391395349055529,0.16032594442367554,-0.09374511986970901
1729615680117.496,-0.22555294632911682,-9.865489959716797,0.3824593424797058,-0.22555294632911682,-9.865489959716797,0.3824593424797058
1729615680122.9253,-0.018109535798430443,0.015978489071130753,0.02290220931172371,-0.018109535798430443,0.015978489071130753,0.02290220931172371
1729615680216.3406,-0.17651969194412231,-9.571290016174316,0.6570455431938171,-0.17651969194412231,-9.571290016174316,0.6570455431938171
1729615680222.6501,0.10919128358364105,0.08522267639636993,-0.04953593388199806,0.10919128358364105,0.08522267639636993,-0.04953593388199806
1729615680354.7183,-0.27458620071411133,-9.5418701171875,0.27458620071411133,-0.27458620071411133,-9.5418701171875,0.27458620071411133
1729615680352.2905,-0.018641861155629158,0.0010646508308127522,-0.018641861155629158,-0.018641861155629158,0.0010646508308127522,-0.018641861155629158
1729615680453.562,-0.19613298773765564,-9.826263427734375,0.10787314921617508,-0.19613298773765564,-9.826263427734375,0.10787314921617508
1729615680452.013,0.012782790698111057,-0.03355569764971733,-0.07776663452386856,0.012782790698111057,-0.03355569764971733,-0.07776663452386856
1729615680582.0535,-0.05883989855647087,-9.688969612121582,1.019891619682312,-0.05883989855647087,-9.688969612121582,1.019891619682312
1729615680586.636,-0.04900360852479935,-0.033023372292518616,-0.038350120186805725,-0.04900360852479935,-0.033023372292518616,-0.038350120186805725
1729615680680.8938,-0.019613299518823624,-9.865489959716797,0.6766588091850281,-0.019613299518823624,-9.865489959716797,0.6766588091850281
1729615680686.3555,-0.04314279183745384,-0.008520697243511677,0.03142465278506279,-0.04314279183745384,-0.008520697243511677,0.03142465278506279
1729615680819.277,-0.3922659754753113,-9.551676750183105,0.6668521761894226,-0.3922659754753113,-9.551676750183105,0.6668521761894226
1729615680820.975,-0.02609965205192566,0.04207814112305641,-0.05113290995359421,-0.02609965205192566,0.04207814112305641,-0.05113290995359421
1729615680918.1216,0.03922659903764725,-9.64974308013916,0.5001391172409058,0.03922659903764725,-9.64974308013916,0.5001391172409058
1729615680920.6921,-0.02396860532462597,0.05326395481824875,-0.04740488529205322,-0.02396860532462597,0.05326395481824875,-0.04740488529205322
1729615681056.5054,0.22555294632911682,-9.894909858703613,0.29419949650764465,0.22555294632911682,-9.894909858703613,0.29419949650764465
1729615681055.315,-0.012250465340912342,0.10493093729019165,-0.09268046915531158,-0.012250465340912342,0.10493093729019165,-0.09268046915531158
1729615681155.3596,0.0784531980752945,-9.610516548156738,0.35303938388824463,0.0784531980752945,-9.610516548156738,0.35303938388824463
1729615681155.0457,0.040481165051460266,0.0830916315317154,-0.01970651187002659,0.040481165051460266,0.0830916315317154,-0.01970651187002659
1729615681283.8672,0.35303938388824463,-9.983169555664062,0.313812792301178,0.35303938388824463,-9.983169555664062,0.313812792301178
1729615681289.6802,-0.05432860553264618,0.12836721539497375,-0.10013651847839355,-0.05432860553264618,0.12836721539497375,-0.10013651847839355
1729615681382.7197,0.5001391172409058,-9.973362922668457,0.3824593424797058,0.5001391172409058,-9.973362922668457,0.3824593424797058
1729615681389.4084,-0.04740488529205322,0.0324910469353199,0.022369883954524994,-0.04740488529205322,0.0324910469353199,0.022369883954524994
1729615681521.106,0.627625584602356,-9.855683326721191,0.8041452765464783,0.627625584602356,-9.855683326721191,0.8041452765464783
1729615681519.053,-0.010651743970811367,0.2711176872253418,0.08575500547885895,-0.010651743970811367,0.2711176872253418,0.08575500547885895
1729615681619.9521,0.26477953791618347,-9.83607006072998,0.3040061295032501,0.26477953791618347,-9.83607006072998,0.3040061295032501
1729615681618.7788,-0.07137349247932434,0.1352926790714264,0.02716430276632309,-0.07137349247932434,0.1352926790714264,0.02716430276632309
1729615681748.443,0.254972904920578,-9.708582878112793,0.4412992298603058,0.254972904920578,-9.708582878112793,0.4412992298603058
1729615681753.4065,0.008520697243511677,0.13848838210105896,-0.03888244554400444,0.008520697243511677,0.13848838210105896,-0.03888244554400444
1729615681847.275,0.6178189516067505,-10.149882316589355,0.2059396505355835,0.6178189516067505,-10.149882316589355,0.2059396505355835
1729615681853.1296,0.003728023264557123,0.09268046915531158,-0.010119418613612652,0.003728023264557123,0.09268046915531158,-0.010119418613612652
1729615681985.641,0.34323275089263916,-9.581096649169922,0.6374322175979614,0.34323275089263916,-9.581096649169922,0.6374322175979614
1729615681987.755,-0.04527384042739868,0.15713024139404297,-0.005324999336153269,-0.04527384042739868,0.15713024139404297,-0.005324999336153269
1729615682084.4954,0.5491724014282227,-9.983169555664062,0.37265267968177795,0.5491724014282227,-9.983169555664062,0.37265267968177795
1729615682087.4958,0.08042825758457184,0.12250814586877823,-0.07084116339683533,0.08042825758457184,0.12250814586877823,-0.07084116339683533
1729615682222.914,0.35303938388824463,-9.708582878112793,0.5393657088279724,0.35303938388824463,-9.708582878112793,0.5393657088279724
1729615682222.163,0.07456918805837631,0.15127117931842804,0.019174186512827873,0.07456918805837631,0.15127117931842804,0.019174186512827873
1729615682321.7812,0.313812792301178,-9.708582878112793,0.6668521761894226,0.313812792301178,-9.708582878112793,0.6668521761894226
1729615682321.9163,-0.015446163713932037,0.10652966052293777,-0.007988371886312962,-0.015446163713932037,0.10652966052293777,-0.007988371886312962
1729615682450.3054,0.4903324842453003,-9.73800277709961,0.6374322175979614,0.4903324842453003,-9.73800277709961,0.6374322175979614
1729615682456.5828,0.003728023264557123,0.11558442562818527,0.05965535342693329,0.003728023264557123,0.11558442562818527,0.05965535342693329
1729615682549.1736,0.509945809841156,-9.728196144104004,0.7551120519638062,0.509945809841156,-9.728196144104004,0.7551120519638062
1729615682556.3345,-0.02077290788292885,0.10493093729019165,0.01970651187002659,-0.02077290788292885,0.10493093729019165,0.01970651187002659
1729615682687.5842,0.4805258512496948,-9.747809410095215,0.6864655017852783,0.4805258512496948,-9.747809410095215,0.6864655017852783
1729615682686.0105,0.022369883954524994,0.18376222252845764,-0.05166523531079292,0.022369883954524994,0.18376222252845764,-0.05166523531079292
1729615682786.4548,0.3334260880947113,-9.532063484191895,0.9218250513076782,0.3334260880947113,-9.532063484191895,0.9218250513076782
1729615682785.761,0.010651743970811367,0.1810988485813141,-0.004792673978954554,0.010651743970811367,0.1810988485813141,-0.004792673978954554
1729615682914.9773,0.34323275089263916,-9.590903282165527,0.8041452765464783,0.34323275089263916,-9.590903282165527,0.8041452765464783
1729615682920.4229,0.012782790698111057,0.14328105747699738,0.003728023264557123,0.012782790698111057,0.14328105747699738,0.003728023264557123
1729615683023.7268,0.09806649386882782,-9.571290016174316,0.7354987263679504,0.09806649386882782,-9.571290016174316,0.7354987263679504
1729615683020.1719,-0.06871011853218079,0.11451803147792816,-0.0324910469353199,-0.06871011853218079,0.11451803147792816,-0.0324910469353199
1729615683152.2273,0.5001391172409058,-9.659549713134766,0.7943386435508728,0.5001391172409058,-9.659549713134766,0.7943386435508728
1729615683154.8123,-0.011184069328010082,0.0980072170495987,0.011718139983713627,-0.011184069328010082,0.0980072170495987,0.011718139983713627
1729615683251.0698,0.45110589265823364,-9.551676750183105,0.8041452765464783,0.45110589265823364,-9.551676750183105,0.8041452765464783
1729615683254.5422,-0.05166523531079292,0.12889954447746277,-0.0021293016616255045,-0.05166523531079292,0.12889954447746277,-0.0021293016616255045
